UNCORRECTED ACCELEROGRAM DATA              PROCESSED: 06/30/2011
0911131
11/12/2009 23:09:53 (GMT)               (ORIGIN: 11/12/2009 23:09:53 GMT)
                                   TRIGGER TIME: 11/12/2009 23:10:03.000 GMT
STATION NO.          0.000N    0.000E  QDR       S/N  673 (3  CHNS OF 3  AT STA)
QDR S/N 673
CHAN  1: EW       (STA CHN:  1)               
UNIVERSIDAD DE CHILE - RENADIC
HYPOCENTER:   0.000N    0.000E  H=   0.0KM   ML= 0.00
INSTR PERIOD = 0.0391 SEC,  DAMPING =0.7000,  SENSITIVITY =1.250 VDC/G
NO. OF POINTS =   3500  RECORD LENGTH = 35.000 SEC
UNITS OF UNCOR ACCEL ARE SEC AND G/10.     MAX  = -0.051 G, AT   3.910 SEC
RMS ACCEL OF COMPLETE RECORD = 0.010 G
    1    1    1    3    3    0    1    0    0    0    0    0    0    0    0    0
    0    0    0    0    0    0    0    0    0    0    0 3500    7   11   30    0
    0    0    0    0    0    0    0    0    0    0    0    0    0    0    0    0
    0    0    0    0    0    0    0    0    0    0    0    0    0    0    0    0
    0    0    0    0    0    0    0    0    0    0    0    0    0    0    0    0
    0    0    0    0    0    0    0    0    0    0    0    0    0    0    0    0
    0    0    0    0
     0.039     0.700    35.000     0.010     0.100     1.250    -0.051     3.910
    25.575     0.000     0.000     0.000    10.000     0.000    10.000    10.000
     0.000     0.000     0.000     0.000     0.000     0.000     0.000     0.000
     0.000     0.000     0.000     0.000     0.000     0.000     0.000     0.000
     0.000     0.000     0.000     0.000     0.000     0.000     0.000     0.000
     0.000     0.000     0.000     0.000     0.000     0.000     0.000     0.000
     0.000     0.000
  0.000  0.078  0.010  0.021  0.020 -0.024  0.030 -0.034  0.040 -0.034
  0.050 -0.043  0.060 -0.041  0.070 -0.034  0.080 -0.006  0.090  0.022
  0.100  0.033  0.110  0.009  0.120 -0.012  0.130 -0.012  0.140 -0.012
  0.150 -0.012  0.160 -0.012  0.170 -0.029  0.180 -0.010  0.190  0.047
  0.200  0.065  0.210  0.016  0.220 -0.038  0.230 -0.047  0.240 -0.018
  0.250  0.033  0.260  0.027  0.270 -0.015  0.280 -0.034  0.290 -0.006
  0.300  0.042  0.310  0.040  0.320 -0.010  0.330 -0.057  0.340 -0.033
  0.350  0.024  0.360  0.056  0.370  0.047  0.380  0.033  0.390 -0.008
  0.400 -0.039  0.410 -0.057  0.420 -0.057  0.430 -0.011  0.440  0.018
  0.450  0.047  0.460  0.056  0.470  0.052  0.480  0.013  0.490 -0.028
  0.500 -0.012  0.510 -0.006  0.520  0.011  0.530  0.030  0.540  0.030
  0.550  0.011  0.560 -0.005  0.570 -0.033  0.580 -0.024  0.590  0.011
  0.600  0.011  0.610 -0.012  0.620 -0.020  0.630 -0.049  0.640 -0.057
  0.650 -0.043  0.660  0.032  0.670  0.090  0.680  0.101  0.690  0.086
  0.700  0.029  0.710 -0.029  0.720 -0.038  0.730 -0.057  0.740 -0.041
  0.750 -0.034  0.760 -0.012  0.770  0.001  0.780  0.048  0.790  0.078
  0.800  0.069  0.810  0.040  0.820  0.012  0.830 -0.012  0.840 -0.024
  0.850 -0.034  0.860 -0.057  0.870 -0.049  0.880 -0.006  0.890  0.031
  0.900  0.056  0.910  0.056  0.920  0.056  0.930  0.032  0.940  0.003
  0.950 -0.025  0.960 -0.034  0.970 -0.031  0.980 -0.002  0.990  0.011
  1.000  0.011  1.010 -0.012  1.020 -0.012  1.030 -0.012  1.040 -0.012
  1.050 -0.003  1.060  0.026  1.070  0.012  1.080 -0.017  1.090 -0.046
  1.100 -0.075  1.110 -0.079  1.120 -0.063  1.130 -0.034  1.140  0.028
  1.150  0.110  1.160  0.145  1.170  0.094  1.180 -0.014  1.190 -0.071
  1.200 -0.102  1.210 -0.082  1.220 -0.034  1.230 -0.024  1.240  0.021
  1.250  0.056  1.260  0.072  1.270  0.043  1.280  0.033  1.290  0.056
  1.300  0.056  1.310  0.025  1.320 -0.011  1.330 -0.057  1.340 -0.045
  1.350 -0.016  1.360 -0.034  1.370 -0.026  1.380  0.003  1.390  0.031
  1.400  0.029  1.410 -0.011  1.420 -0.034  1.430  0.012  1.440  0.063
  1.450  0.065  1.460  0.016  1.470 -0.038  1.480 -0.047  1.490 -0.002
  1.500  0.033  1.510 -0.002  1.520 -0.034  1.530 -0.034  1.540 -0.032
  1.550 -0.012  1.560 -0.027  1.570 -0.056  1.580 -0.057  1.590 -0.045
  1.600 -0.016  1.610  0.037  1.620  0.078  1.630  0.064  1.640  0.035
  1.650 -0.012  1.660 -0.023  1.670 -0.017  1.680  0.011  1.690  0.011
  1.700  0.024  1.710  0.053  1.720  0.052  1.730  0.013  1.740 -0.028
  1.750 -0.057  1.760 -0.044  1.770  0.001  1.780  0.011  1.790  0.033
  1.800  0.033  1.810  0.048  1.820  0.056  1.830  0.045  1.840 -0.013
  1.850 -0.052  1.860 -0.029  1.870  0.041  1.880  0.041  1.890  0.012
  1.900 -0.061  1.910 -0.058  1.920  0.017  1.930  0.055  1.940  0.019
  1.950 -0.039  1.960 -0.057  1.970 -0.031  1.980 -0.012  1.990  0.004
  2.000  0.011  2.010  0.011  2.020 -0.002  2.030 -0.031  2.040 -0.029
  2.050  0.011  2.060 -0.005  2.070 -0.012  2.080  0.038  2.090  0.067
  2.100  0.060  2.110  0.005  2.120 -0.057  2.130 -0.057  2.140 -0.057
  2.150 -0.052  2.160 -0.002  2.170  0.067  2.180  0.101  2.190  0.101
  2.200  0.074  2.210  0.016  2.220 -0.060  2.230 -0.069  2.240 -0.024
  2.250  0.033  2.260  0.021  2.270 -0.012  2.280 -0.012  2.290  0.011
  2.300  0.002  2.310 -0.012  2.320 -0.012  2.330  0.011  2.340  0.022
  2.350  0.033  2.360  0.056  2.370  0.039  2.380 -0.033  2.390 -0.077
  2.400 -0.030  2.410 -0.001  2.420  0.028  2.430  0.010  2.440 -0.019
  2.450 -0.048  2.460 -0.077  2.470 -0.053  2.480 -0.015  2.490  0.043
  2.500  0.078  2.510  0.049  2.520  0.021  2.530 -0.027  2.540 -0.057
  2.550 -0.057  2.560 -0.041  2.570 -0.013  2.580 -0.034  2.590 -0.023
  2.600 -0.012  2.610 -0.012  2.620 -0.012  2.630  0.017  2.640  0.074
  2.650  0.074  2.660  0.056  2.670  0.038  2.680 -0.015  2.690 -0.094
  2.700 -0.124  2.710 -0.085  2.720  0.003  2.730  0.098  2.740  0.091
  2.750 -0.012  2.760 -0.050  2.770 -0.022  2.780  0.026  2.790  0.056
  2.800  0.047  2.810  0.033  2.820  0.012  2.830  0.005  2.840 -0.035
  2.850 -0.057  2.860 -0.055  2.870 -0.026  2.880  0.003  2.890  0.031
  2.900  0.083  2.910  0.101  2.920  0.083  2.930  0.031  2.940 -0.012
  2.950  0.002  2.960  0.030  2.970  0.030  2.980 -0.019  2.990 -0.122
  3.000 -0.169  3.010 -0.105  3.020 -0.019  3.030  0.048  3.040  0.056
  3.050  0.056  3.060  0.056  3.070  0.077  3.080  0.045  3.090  0.011
  3.100 -0.007  3.110 -0.038  3.120 -0.079  3.130 -0.065  3.140 -0.036
  3.150 -0.034  3.160 -0.024  3.170  0.005  3.180  0.079  3.190  0.093
  3.200  0.038  3.210 -0.049  3.220 -0.057  3.230 -0.047  3.240 -0.018
  3.250  0.033  3.260  0.039  3.270  0.068  3.280  0.040  3.290 -0.012
  3.300 -0.021  3.310 -0.050  3.320 -0.057  3.330 -0.024  3.340  0.022
  3.350  0.033  3.360 -0.015  3.370 -0.065  3.380 -0.050  3.390  0.007
  3.400  0.038  3.410  0.056  3.420  0.056  3.430  0.033  3.440  0.033
  3.450  0.020  3.460 -0.009  3.470 -0.038  3.480 -0.057  3.490 -0.057
  3.500 -0.057  3.510 -0.050  3.520 -0.034  3.530  0.022  3.540  0.083
  3.550  0.123  3.560  0.092  3.570  0.013  3.580 -0.068  3.590 -0.102
  3.600 -0.102  3.610 -0.102  3.620 -0.094  3.630 -0.022  3.640  0.073
  3.650  0.118  3.660  0.068  3.670 -0.001  3.680 -0.035  3.690 -0.057
  3.700 -0.070  3.710 -0.079  3.720 -0.076  3.730 -0.027  3.740  0.043
  3.750  0.101  3.760  0.065  3.770  0.033  3.780  0.033  3.790  0.011
  3.800  0.011  3.810 -0.005  3.820 -0.012  3.830 -0.012  3.840 -0.012
  3.850 -0.012  3.860 -0.010  3.870  0.019  3.880  0.047  3.890  0.056
  3.900  0.051  3.910  0.012  3.920 -0.046  3.930 -0.057  3.940 -0.042
  3.950  0.015  3.960  0.033  3.970 -0.019  3.980 -0.047  3.990 -0.034
  4.000 -0.012  4.010 -0.006  4.020  0.023  4.030  0.052  4.040  0.028
  4.050 -0.021  4.060 -0.065  4.070 -0.079  4.080 -0.051  4.090 -0.023
  4.100  0.006  4.110  0.057  4.120  0.070  4.130  0.027  4.140 -0.031
  4.150 -0.034  4.160 -0.034  4.170 -0.034  4.180 -0.057  4.190 -0.057
  4.200 -0.043  4.210 -0.015  4.220  0.037  4.230  0.065  4.240  0.078
  4.250  0.056  4.260  0.004  4.270 -0.024  4.280 -0.034  4.290 -0.034
  4.300 -0.025  4.310  0.003  4.320  0.054  4.330  0.050  4.340  0.021
  4.350 -0.007  4.360 -0.034  4.370 -0.026  4.380 -0.012  4.390 -0.012
  4.400 -0.012  4.410 -0.012  4.420 -0.012  4.430  0.011  4.440  0.003
  4.450 -0.012  4.460  0.008  4.470  0.030  4.480  0.001  4.490 -0.012
  4.500 -0.012  4.510 -0.063  4.520 -0.067  4.530 -0.019  4.540  0.081
  4.550  0.101  4.560  0.055  4.570 -0.032  4.580 -0.079  4.590 -0.056
  4.600 -0.016  4.610 -0.033  4.620 -0.004  4.630  0.025  4.640  0.033
  4.650  0.029  4.660 -0.011  4.670 -0.034  4.680  0.012  4.690  0.056
  4.700  0.056  4.710 -0.004  4.720 -0.086  4.730 -0.114  4.740 -0.086
  4.750 -0.057  4.760 -0.006  4.770  0.023  4.780  0.071  4.790  0.073
  4.800  0.024  4.810 -0.020  4.820 -0.013  4.830  0.033  4.840  0.021
  4.850 -0.007  4.860 -0.036  4.870 -0.065  4.880 -0.094  4.890 -0.081
  4.900  0.024  4.910  0.078  4.920  0.044  4.930 -0.013  4.940 -0.034
  4.950 -0.021  4.960  0.008  4.970  0.011  4.980  0.001  4.990 -0.028
  5.000 -0.034  5.010  0.017  5.020  0.046  5.030  0.037  5.040 -0.015
  5.050 -0.034  5.060 -0.019  5.070 -0.012  5.080 -0.012  5.090 -0.000
  5.100  0.029  5.110  0.033  5.120  0.017  5.130 -0.026  5.140 -0.014
  5.150  0.038  5.160  0.045  5.170  0.033  5.180  0.010  5.190 -0.012
  5.200 -0.012  5.210 -0.012  5.220 -0.031  5.230 -0.002  5.240  0.043
  5.250  0.078  5.260  0.072  5.270  0.030  5.280 -0.046  5.290 -0.104
  5.300 -0.106  5.310 -0.049  5.320  0.009  5.330  0.038  5.340  0.067
  5.350  0.060  5.360  0.031  5.370  0.011  5.380 -0.004  5.390 -0.033
  5.400 -0.030  5.410 -0.012  5.420  0.005  5.430  0.010  5.440 -0.012
  5.450 -0.025  5.460 -0.054  5.470 -0.057  5.480 -0.047  5.490  0.014
  5.500  0.101  5.510  0.123  5.520  0.085  5.530 -0.001  5.540 -0.054
  5.550 -0.007  5.560  0.064  5.570  0.056  5.580  0.028  5.590  0.011
  5.600 -0.007  5.610 -0.034  5.620 -0.026  5.630  0.003  5.640  0.011
  5.650 -0.012  5.660 -0.001  5.670  0.011  5.680 -0.013  5.690 -0.041
  5.700 -0.057  5.710 -0.037  5.720  0.007  5.730 -0.022  5.740 -0.034
  5.750 -0.012  5.760 -0.012  5.770 -0.024  5.780 -0.034  5.790  0.013
  5.800  0.042  5.810  0.056  5.820  0.034  5.830  0.005  5.840 -0.012
  5.850  0.006  5.860  0.012  5.870  0.033  5.880  0.033  5.890  0.033
  5.900  0.002  5.910 -0.034  5.920 -0.034  5.930 -0.034  5.940 -0.034
  5.950 -0.021  5.960  0.008  5.970  0.037  5.980  0.056  5.990  0.023
  6.000 -0.057  6.010 -0.095  6.020 -0.054  6.030  0.003  6.040  0.036
  6.050  0.065  6.060  0.063  6.070  0.012  6.080  0.016  6.090  0.033
  6.100 -0.003  6.110 -0.081  6.120 -0.102  6.130 -0.087  6.140 -0.038
  6.150  0.020  6.160  0.056  6.170  0.056  6.180  0.055  6.190  0.033
  6.200  0.020  6.210 -0.009  6.220 -0.060  6.230 -0.069  6.240 -0.024
  6.250  0.056  6.260  0.078  6.270  0.078  6.280  0.059  6.290  0.008
  6.300 -0.021  6.310 -0.034  6.320 -0.013  6.330  0.011  6.340  0.022
  6.350  0.015  6.360 -0.014  6.370 -0.042  6.380 -0.042  6.390 -0.014
  6.400  0.011  6.410  0.011  6.420 -0.006  6.430 -0.014  6.440 -0.057
  6.450 -0.057  6.460 -0.037  6.470  0.014  6.480  0.043  6.490  0.039
  6.500  0.011  6.510 -0.006  6.520  0.023  6.530  0.071  6.540  0.101
  6.550  0.083  6.560  0.040  6.570  0.012  6.580  0.005  6.590 -0.035
  6.600 -0.075  6.610 -0.074  6.620  0.004  6.630  0.047  6.640  0.056
  6.650  0.024  6.660 -0.033  6.670 -0.091  6.680 -0.077  6.690 -0.020
  6.700  0.065  6.710  0.140  6.720  0.093  6.730  0.036  6.740 -0.006
  6.750  0.011  6.760  0.011  6.770 -0.002  6.780 -0.031  6.790  0.013
  6.800  0.042  6.810  0.071  6.820  0.035  6.830 -0.034  6.840 -0.034
  6.850 -0.016  6.860  0.011  6.870 -0.006  6.880 -0.049  6.890 -0.057
  6.900 -0.057  6.910 -0.046  6.920 -0.000  6.930  0.032  6.940  0.003
  6.950 -0.012  6.960 -0.012  6.970 -0.008  6.980  0.021  6.990  0.001
  7.000 -0.034  7.010 -0.034  7.020 -0.022  7.030  0.007  7.040  0.008
  7.050 -0.003  7.060  0.026  7.070  0.012  7.080  0.005  7.090 -0.024
  7.100 -0.034  7.110 -0.055  7.120 -0.026  7.130 -0.012  7.140 -0.053
  7.150 -0.052  7.160 -0.002  7.170  0.067  7.180  0.077  7.190  0.041
  7.200 -0.003  7.210  0.008  7.220  0.056  7.230  0.056  7.240  0.056
  7.250  0.033  7.260 -0.012  7.270 -0.024  7.280 -0.015  7.290 -0.009
  7.300  0.002  7.310 -0.012  7.320 -0.033  7.330 -0.034  7.340 -0.023
  7.350 -0.012  7.360 -0.012  7.370 -0.004  7.380  0.025  7.390  0.033
  7.400  0.033  7.410  0.022  7.420  0.011  7.430  0.011  7.440  0.018
  7.450  0.033  7.460  0.013  7.470  0.011  7.480  0.011  7.490 -0.006
  7.500 -0.034  7.510 -0.063  7.520 -0.067  7.530 -0.038  7.540  0.013
  7.550  0.042  7.560  0.040  7.570  0.033  7.580  0.011  7.590  0.022
  7.600  0.033  7.610  0.009  7.620 -0.020  7.630 -0.049  7.640 -0.057
  7.650 -0.057  7.660 -0.035  7.670  0.056  7.680  0.122  7.690  0.086
  7.700  0.029  7.710 -0.009  7.720  0.014  7.730  0.033  7.740  0.033
  7.750  0.033  7.760  0.004  7.770 -0.024  7.780 -0.034  7.790 -0.032
  7.800 -0.003  7.810  0.011  7.820 -0.011  7.830 -0.062  7.840 -0.079
  7.850 -0.061  7.860 -0.033  7.870 -0.004  7.880  0.039  7.890  0.076
  7.900  0.078  7.910  0.067  7.920  0.021  7.930 -0.012  7.940 -0.012
  7.950 -0.012  7.960 -0.051  7.970 -0.050  7.980  0.008  7.990  0.065
  8.000  0.101  8.010  0.059  8.020 -0.015  8.030 -0.053  8.040 -0.079
  8.050 -0.061  8.060 -0.019  8.070 -0.012  8.080 -0.024  8.090  0.011
  8.100  0.011  8.110 -0.038  8.120 -0.079  8.130 -0.079  8.140 -0.059
  8.150 -0.003  8.160  0.033  8.170  0.033  8.180  0.032  8.190  0.003
  8.200 -0.012  8.210 -0.012  8.220 -0.012  8.230 -0.022  8.240 -0.034
  8.250 -0.034  8.260 -0.018  8.270 -0.047  8.280 -0.095  8.290 -0.102
  8.300 -0.084  8.310 -0.026  8.320  0.010  8.330  0.038  8.340  0.056
  8.350  0.038  8.360  0.035  8.370  0.056  8.380  0.056  8.390  0.056
  8.400  0.006  8.410 -0.023  8.420 -0.051  8.430 -0.056  8.440 -0.034
  8.450 -0.007  8.460  0.030  8.470  0.030  8.480  0.001  8.490 -0.028
  8.500 -0.079  8.510 -0.050  8.520 -0.009  8.530  0.048  8.540  0.123
  8.550  0.105  8.560  0.047  8.570  0.012  8.580  0.028  8.590  0.011
  8.600 -0.007  8.610 -0.034  8.620 -0.034  8.630 -0.020  8.640  0.009
  8.650  0.060  8.660  0.067  8.670  0.038  8.680  0.010  8.690 -0.012
  8.700 -0.012  8.710  0.008  8.720  0.011  8.730  0.001  8.740 -0.012
  8.750 -0.012  8.760 -0.018  8.770 -0.022  8.780  0.007  8.790  0.011
  8.800  0.002  8.810 -0.027  8.820 -0.013  8.830  0.016  8.840  0.033
  8.850  0.015  8.860 -0.012  8.870 -0.004  8.880  0.025  8.890  0.054
  8.900  0.024  8.910 -0.033  8.920 -0.057  8.930 -0.056  8.940 -0.013
  8.950  0.047  8.960  0.075  8.970  0.074  8.980  0.056  8.990  0.056
  9.000  0.056  9.010  0.056  9.020  0.043  9.030 -0.005  9.040 -0.034
  9.050 -0.025  9.060 -0.012  9.070 -0.012  9.080 -0.017  9.090 -0.046
  9.100 -0.057  9.110 -0.055  9.120 -0.018  9.130  0.025  9.140  0.054
  9.150  0.051  9.160  0.022  9.170  0.011  9.180 -0.013  9.190 -0.041
  9.200 -0.057  9.210 -0.017  9.220  0.011  9.230  0.011  9.240  0.011
  9.250  0.033  9.260  0.056  9.270  0.056  9.280  0.037  9.290  0.011
  9.300  0.002  9.310 -0.027  9.320 -0.034  9.330 -0.029  9.340 -0.012
  9.350 -0.030  9.360 -0.034  9.370 -0.026  9.380  0.017  9.390  0.033
  9.400  0.006  9.410 -0.023  9.420 -0.051  9.430 -0.033  9.440 -0.012
  9.450 -0.025  9.460 -0.034  9.470 -0.060  9.480 -0.089  9.490 -0.118
  9.500 -0.102  9.510 -0.044  9.520  0.013  9.530  0.071  9.540  0.101
  9.550  0.092  9.560  0.078  9.570  0.078  9.580  0.078  9.590  0.090
  9.600  0.083  9.610  0.052  9.620 -0.006  9.630 -0.049  9.640 -0.077
  9.650 -0.111  9.660 -0.157  9.670 -0.169  9.680 -0.191  9.690 -0.162
  9.700 -0.147  9.710 -0.127  9.720 -0.147  9.730 -0.147  9.740 -0.114
  9.750 -0.079  9.760 -0.034  9.770 -0.022  9.780 -0.012  9.790  0.033
  9.800  0.033  9.810  0.033  9.820  0.012  9.830 -0.012  9.840 -0.000
  9.850  0.047  9.860  0.078  9.870  0.078  9.880  0.078  9.890  0.037
  9.900  0.002  9.910 -0.034  9.920 -0.034  9.930 -0.010  9.940  0.055
  9.950  0.127  9.960  0.165  9.970  0.213  9.980  0.223  9.990  0.252
 10.000  0.280 10.010  0.252 10.020  0.223 10.030  0.213 10.040  0.218
 10.050  0.258 10.060  0.227 10.070  0.148 10.080  0.034 10.090 -0.058
 10.100 -0.115 10.110 -0.148 10.120 -0.185 10.130 -0.228 10.140 -0.216
 10.150 -0.142 10.160 -0.113 10.170 -0.119 10.180 -0.146 10.190 -0.124
 10.200 -0.124 10.210 -0.144 10.220 -0.095 10.230 -0.037 10.240  0.004
 10.250  0.033 10.260  0.027 10.270 -0.015 10.280 -0.053 10.290 -0.059
 10.300 -0.088 10.310 -0.132 10.320 -0.168 10.330 -0.147 10.340 -0.135
 10.350 -0.106 10.360 -0.079 10.370 -0.079 10.380 -0.050 10.390  0.007
 10.400  0.011 10.410  0.021 10.420  0.016 10.430  0.010 10.440 -0.012
 10.450 -0.012 10.460 -0.012 10.470  0.044 10.480  0.120 10.490  0.162
 10.500  0.145 10.510  0.094 10.520  0.053 10.530  0.014 10.540 -0.037
 10.550 -0.066 10.560 -0.095 10.570 -0.102 10.580 -0.074 10.590 -0.068
 10.600 -0.061 10.610 -0.008 10.620  0.041 10.630  0.041 10.640  0.012
 10.650 -0.012 10.660 -0.001 10.670  0.045 10.680  0.102 10.690  0.153
 10.700  0.181 10.710  0.190 10.720  0.168 10.730  0.168 10.740  0.136
 10.750  0.123 10.760  0.123 10.770  0.110 10.780  0.063 10.790  0.061
 10.800  0.110 10.810  0.154 10.820  0.211 10.830  0.213 10.840  0.190
 10.850  0.150 10.860  0.121 10.870  0.076 10.880  0.004 10.890 -0.074
 10.900 -0.106 10.910 -0.113 10.920 -0.050 10.930 -0.010 10.940  0.033
 10.950  0.047 10.960  0.075 10.970  0.067 10.980 -0.009 10.990 -0.115
 11.000 -0.214 11.010 -0.230 11.020 -0.189 11.030 -0.150 11.040 -0.127
 11.050 -0.156 11.060 -0.184 11.070 -0.235 11.080 -0.304 11.090 -0.292
 11.100 -0.264 11.110 -0.233 11.120 -0.184 11.130 -0.155 11.140 -0.105
 11.150 -0.075 11.160 -0.057 11.170 -0.091 11.180 -0.148 11.190 -0.199
 11.200 -0.174 11.210 -0.048 11.220  0.092 11.230  0.178 11.240  0.174
 11.250  0.145 11.260  0.088 11.270  0.043 11.280  0.033 11.290  0.036
 11.300  0.065 11.310  0.078 11.320  0.078 11.330  0.061 11.340  0.090
 11.350  0.118 11.360  0.151 11.370  0.237 11.380  0.309 11.390  0.325
 11.400  0.271 11.410  0.203 11.420  0.134 11.430  0.147 11.440  0.198
 11.450  0.240 11.460  0.258 11.470  0.310 11.480  0.367 11.490  0.376
 11.500  0.280 11.510  0.095 11.520 -0.122 11.530 -0.324 11.540 -0.444
 11.550 -0.484 11.560 -0.484 11.570 -0.462 11.580 -0.372 11.590 -0.234
 11.600 -0.061 11.610  0.108 11.620  0.198 11.630  0.213 11.640  0.172
 11.650  0.083 11.660 -0.022 11.670 -0.074 11.680 -0.124 11.690 -0.131
 11.700 -0.147 11.710 -0.147 11.720 -0.176 11.730 -0.224 11.740 -0.269
 11.750 -0.282 11.760 -0.282 11.770 -0.256 11.780 -0.199 11.790 -0.144
 11.800 -0.124 11.810 -0.155 11.820 -0.191 11.830 -0.214 11.840 -0.202
 11.850 -0.156 11.860 -0.072 11.870  0.051 11.880  0.152 11.890  0.189
 11.900  0.172 11.910  0.212 11.920  0.252 11.930  0.281 11.940  0.317
 11.950  0.361 11.960  0.370 11.970  0.292 11.980  0.206 11.990  0.119
 12.000  0.033 12.010 -0.095 12.020 -0.229 12.030 -0.259 12.040 -0.203
 12.050 -0.097 12.060 -0.011 12.070  0.054 12.080  0.122 12.090  0.249
 12.100  0.357 12.110  0.387 12.120  0.277 12.130  0.090 12.140 -0.050
 12.150 -0.160 12.160 -0.236 12.170 -0.276 12.180 -0.303 12.190 -0.253
 12.200 -0.124 12.210 -0.000 12.220  0.085 12.230  0.103 12.240  0.062
 12.250  0.011 12.260 -0.024 12.270 -0.082 12.280 -0.121 12.290 -0.122
 12.300 -0.093 12.310 -0.049 12.320  0.074 12.330  0.217 12.340  0.361
 12.350  0.433 12.360  0.406 12.370  0.254 12.380  0.096 12.390 -0.048
 12.400 -0.183 12.410 -0.215 12.420 -0.106 12.430  0.084 12.440  0.264
 12.450  0.352 12.460  0.331 12.470  0.191 12.480 -0.001 12.490 -0.199
 12.500 -0.326 12.510 -0.320 12.520 -0.266 12.530 -0.180 12.540 -0.094
 12.550 -0.007 12.560  0.094 12.570  0.188 12.580  0.230 12.590  0.190
 12.600  0.096 12.610 -0.041 12.620 -0.157 12.630 -0.257 12.640 -0.323
 12.650 -0.349 12.660 -0.306 12.670 -0.174 12.680  0.016 12.690  0.160
 12.700  0.177 12.710  0.089 12.720 -0.000 12.730 -0.057 12.740 -0.073
 12.750 -0.124 12.760 -0.210 12.770 -0.259 12.780 -0.202 12.790 -0.071
 12.800 -0.012 12.810 -0.027 12.820 -0.034 12.830 -0.006 12.840  0.011
 12.850  0.011 12.860 -0.036 12.870 -0.057 12.880 -0.042 12.890  0.007
 12.900  0.060 12.910  0.078 12.920  0.044 12.930 -0.014 12.940 -0.057
 12.950 -0.043 12.960  0.005 12.970  0.037 12.980  0.056 12.990  0.056
 13.000  0.056 13.010  0.049 13.020  0.046 13.030  0.037 13.040 -0.045
 13.050 -0.160 13.060 -0.245 13.070 -0.259 13.080 -0.203 13.090 -0.146
 13.100 -0.070 13.110  0.016 13.120  0.094 13.130  0.137 13.140  0.104
 13.150  0.020 13.160 -0.067 13.170 -0.153 13.180 -0.167 13.190 -0.110
 13.200 -0.052 13.210  0.045 13.220  0.182 13.230  0.287 13.240  0.341
 13.250  0.325 13.260  0.268 13.270  0.210 13.280  0.172 13.290  0.143
 13.300  0.114 13.310  0.116 13.320  0.145 13.330  0.173 13.340  0.190
 13.350  0.154 13.360  0.097 13.370  0.031 13.380 -0.041 13.390 -0.098
 13.400 -0.079 13.410 -0.068 13.420 -0.040 13.430 -0.011 13.440  0.018
 13.450  0.033 13.460  0.033 13.470  0.059 13.480  0.088 13.490  0.117
 13.500  0.101 13.510  0.065 13.520  0.033 13.530  0.033 13.540  0.030
 13.550 -0.007 13.560 -0.095 13.570 -0.189 13.580 -0.237 13.590 -0.237
 13.600 -0.183 13.610 -0.096 13.620 -0.026 13.630  0.017 13.640  0.054
 13.650  0.101 13.660  0.090 13.670  0.044 13.680  0.009 13.690 -0.034
 13.700 -0.021 13.710  0.008 13.720  0.037 13.730  0.075 13.740  0.117
 13.750  0.101 13.760  0.030 13.770 -0.072 13.780 -0.139 13.790 -0.147
 13.800 -0.147 13.810 -0.131 13.820 -0.038 13.830  0.094 13.840  0.145
 13.850  0.127 13.860  0.073 13.870 -0.030 13.880 -0.174 13.890 -0.338
 13.900 -0.452 13.910 -0.506 13.920 -0.489 13.930 -0.366 13.940 -0.186
 13.950  0.056 13.960  0.323 13.970  0.490 13.980  0.498 13.990  0.363
 14.000  0.190 14.010  0.072 14.020  0.068 14.030  0.078 14.040  0.047
 14.050 -0.030 14.060 -0.087 14.070 -0.080 14.080 -0.018 14.090  0.056
 14.100  0.078 14.110 -0.021 14.120 -0.165 14.130 -0.294 14.140 -0.368
 14.150 -0.389 14.160 -0.371 14.170 -0.354 14.180 -0.323 14.190 -0.201
 14.200 -0.016 14.210  0.174 14.220  0.303 14.230  0.303 14.240  0.303
 14.250  0.348 14.260  0.399 14.270  0.415 14.280  0.377 14.290  0.242
 14.300  0.078 14.310 -0.096 14.320 -0.276 14.330 -0.399 14.340 -0.370
 14.350 -0.201 14.360 -0.033 14.370 -0.028 14.380 -0.143 14.390 -0.274
 14.400 -0.259 14.410 -0.104 14.420  0.085 14.430  0.214 14.440  0.235
 14.450  0.235 14.460  0.216 14.470  0.187 14.480  0.158 14.490  0.145
 14.500  0.145 14.510  0.082 14.520 -0.005 14.530 -0.072 14.540 -0.077
 14.550 -0.039 14.560  0.019 14.570  0.033 14.580  0.033 14.590  0.045
 14.600  0.038 14.610 -0.064 14.620 -0.179 14.630 -0.265 14.640 -0.323
 14.650 -0.322 14.660 -0.282 14.670 -0.225 14.680 -0.166 14.690 -0.066
 14.700  0.092 14.710  0.264 14.720  0.426 14.730  0.473 14.740  0.412
 14.750  0.258 14.760  0.120 14.770  0.030 14.780 -0.027 14.790 -0.085
 14.800 -0.124 14.810 -0.109 14.820 -0.080 14.830 -0.079 14.840 -0.091
 14.850 -0.102 14.860 -0.027 14.870  0.088 14.880  0.189 14.890  0.213
 14.900  0.154 14.910  0.047 14.920 -0.063 14.930 -0.122 14.940 -0.058
 14.950  0.029 14.960  0.056 14.970  0.022 14.980 -0.054 14.990 -0.095
 15.000 -0.169 15.010 -0.249 15.020 -0.269 15.030 -0.202 15.040 -0.041
 15.050  0.123 15.060  0.252 15.070  0.323 15.080  0.342 15.090  0.302
 15.100  0.208 15.110  0.095 15.120  0.009 15.130 -0.077 15.140 -0.143
 15.150 -0.196 15.160 -0.203 15.170 -0.123 15.180 -0.008 15.190  0.092
 15.200  0.123 15.210  0.123 15.220  0.145 15.230  0.116 15.240 -0.019
 15.250 -0.214 15.260 -0.403 15.270 -0.484 15.280 -0.427 15.290 -0.263
 15.300 -0.079 15.310  0.065 15.320  0.187 15.330  0.274 15.340  0.314
 15.350  0.303 15.360  0.252 15.370  0.174 15.380  0.088 15.390 -0.006
 15.400 -0.093 15.410 -0.179 15.420 -0.231 15.430 -0.235 15.440 -0.170
 15.450 -0.084 15.460 -0.017 15.470  0.003 15.480 -0.044 15.490 -0.073
 15.500 -0.057 15.510  0.030 15.520  0.078 15.530  0.078 15.540  0.083
 15.550  0.132 15.560  0.191 15.570  0.256 15.580  0.275 15.590  0.223
 15.600  0.136 15.610  0.078 15.620  0.102 15.630  0.174 15.640  0.170
 15.650  0.051 15.660 -0.111 15.670 -0.220 15.680 -0.259 15.690 -0.252
 15.700 -0.196 15.710 -0.090 15.720  0.074 15.730  0.207 15.740  0.290
 15.750  0.303 15.760  0.233 15.770  0.105 15.780 -0.039 15.790 -0.124
 15.800 -0.088 15.810  0.012 15.820  0.098 15.830  0.140 15.840  0.076
 15.850 -0.075 15.860 -0.223 15.870 -0.343 15.880 -0.386 15.890 -0.394
 15.900 -0.358 15.910 -0.272 15.920 -0.185 15.930 -0.077 15.940 -0.027
 15.950  0.002 15.960  0.011 15.970  0.011 15.980  0.011 15.990 -0.006
 16.000 -0.079 16.010 -0.137 16.020 -0.157 16.030 -0.109 16.040 -0.029
 16.050  0.020 16.060  0.048 16.070 -0.009 16.080 -0.068 16.090 -0.113
 16.100 -0.124 16.110 -0.098 16.120 -0.033 16.130  0.054 16.140  0.119
 16.150  0.177 16.160  0.224 16.170  0.270 16.180  0.302 16.190  0.259
 16.200  0.159 16.210  0.024 16.220 -0.083 16.230 -0.102 16.240 -0.069
 16.250 -0.034 16.260  0.007 16.270  0.081 16.280  0.119 16.290  0.168
 16.300  0.168 16.310  0.168 16.320  0.146 16.330  0.118 16.340  0.101
 16.350  0.118 16.360  0.173 16.370  0.243 16.380  0.258 16.390  0.196
 16.400  0.083 16.410  0.011 16.420  0.011 16.430 -0.013 16.440 -0.041
 16.450 -0.057 16.460 -0.096 16.470 -0.098 16.480 -0.059 16.490 -0.018
 16.500 -0.012 16.510 -0.082 16.520 -0.197 16.530 -0.293 16.540 -0.324
 16.550 -0.304 16.560 -0.273 16.570 -0.216 16.580 -0.186 16.590 -0.169
 16.600 -0.151 16.610 -0.122 16.620 -0.094 16.630 -0.065 16.640 -0.057
 16.650 -0.061 16.660 -0.058 16.670 -0.000 16.680  0.082 16.690  0.190
 16.700  0.276 16.710  0.323 16.720  0.318 16.730  0.251 16.740  0.164
 16.750  0.078 16.760  0.027 16.770  0.011 16.780  0.030 16.790  0.008
 16.800 -0.030 16.810 -0.103 16.820 -0.210 16.830 -0.309 16.840 -0.315
 16.850 -0.232 16.860 -0.095 16.870  0.021 16.880  0.121 16.890  0.187
 16.900  0.181 16.910  0.113 16.920 -0.024 16.930 -0.125 16.940 -0.132
 16.950 -0.048 16.960  0.087 16.970  0.145 16.980  0.116 16.990  0.013
 17.000 -0.057 17.010 -0.102 17.020 -0.114 17.030 -0.162 17.040 -0.189
 17.050 -0.160 17.060 -0.101 17.070  0.029 17.080  0.200 17.090  0.361
 17.100  0.433 17.110  0.458 17.120  0.413 17.130  0.298 17.140  0.134
 17.150  0.020 17.160 -0.056 17.170 -0.096 17.180 -0.125 17.190 -0.161
 17.200 -0.165 17.210 -0.107 17.220  0.003 17.230  0.098 17.240  0.123
 17.250  0.078 17.260  0.021 17.270 -0.024 17.280 -0.034 17.290 -0.082
 17.300 -0.111 17.310 -0.124 17.320 -0.081 17.330 -0.018 17.340  0.056
 17.350  0.078 17.360  0.031 17.370 -0.006 17.380 -0.049 17.390 -0.077
 17.400 -0.106 17.410 -0.135 17.420 -0.130 17.430 -0.100 17.440 -0.050
 17.450 -0.034 17.460 -0.034 17.470 -0.079 17.480 -0.069 17.490 -0.041
 17.500  0.011 17.510  0.039 17.520  0.056 17.530  0.056 17.540  0.028
 17.550 -0.030 17.560 -0.087 17.570 -0.102 17.580 -0.046 17.590  0.023
 17.600  0.110 17.610  0.170 17.620  0.166 17.630  0.065 17.640 -0.070
 17.650 -0.178 17.660 -0.203 17.670 -0.157 17.680 -0.098 17.690  0.010
 17.700  0.123 17.710  0.227 17.720  0.251 17.730  0.193 17.740  0.119
 17.750  0.056 17.760 -0.053 17.770 -0.114 17.780 -0.124 17.790 -0.046
 17.800  0.069 17.810  0.169 17.820  0.212 17.830  0.207 17.840  0.155
 17.850  0.051 17.860 -0.015 17.870 -0.073 17.880 -0.102 17.890 -0.081
 17.900 -0.052 17.910 -0.013 17.920  0.028 17.930  0.056 17.940  0.048
 17.950  0.033 17.960  0.033 17.970  0.056 17.980  0.046 17.990  0.017
 18.000 -0.034 18.010 -0.063 18.020 -0.079 18.030 -0.117 18.040 -0.175
 18.050 -0.223 18.060 -0.252 18.070 -0.216 18.080 -0.125 18.090 -0.033
 18.100  0.024 18.110  0.033 18.120  0.033 18.130  0.033 18.140  0.012
 18.150  0.002 18.160 -0.056 18.170 -0.096 18.180 -0.055 18.190  0.010
 18.200  0.083 18.210  0.120 18.220  0.142 18.230  0.103 18.240  0.046
 18.250  0.011 18.260  0.039 18.270  0.056 18.280  0.056 18.290  0.081
 18.300  0.110 18.310  0.123 18.320  0.101 18.330  0.050 18.340  0.033
 18.350  0.033 18.360  0.033 18.370  0.041 18.380  0.056 18.390  0.056
 18.400  0.033 18.410  0.033 18.420 -0.001 18.430 -0.058 18.440 -0.079
 18.450 -0.093 18.460 -0.082 18.470 -0.050 18.480  0.008 18.490  0.065
 18.500  0.101 18.510  0.043 18.520 -0.027 18.530 -0.095 18.540 -0.152
 18.550 -0.192 18.560 -0.176 18.570 -0.126 18.580 -0.074 18.590 -0.033
 18.600  0.006 18.610  0.057 18.620  0.094 18.630  0.137 18.640  0.145
 18.650  0.092 18.660  0.034 18.670 -0.041 18.680 -0.127 18.690 -0.199
 18.700 -0.201 18.710 -0.132 18.720 -0.042 18.730  0.063 18.740  0.149
 18.750  0.190 18.760  0.178 18.770  0.108 18.780  0.040 18.790 -0.012
 18.800  0.006 18.810  0.048 18.820  0.056 18.830  0.033 18.840  0.045
 18.850  0.056 18.860  0.056 18.870  0.047 18.880  0.019 18.890 -0.010
 18.900 -0.066 18.910 -0.123 18.920 -0.164 18.930 -0.191 18.940 -0.162
 18.950 -0.133 18.960 -0.065 18.970  0.021 18.980  0.108 18.990  0.162
 19.000  0.190 19.010  0.149 19.020  0.088 19.030  0.059 19.040  0.033
 19.050  0.033 19.060  0.018 19.070 -0.011 19.080 -0.040 19.090 -0.045
 19.100 -0.034 19.110 -0.012 19.120 -0.020 19.130 -0.049 19.140 -0.098
 19.150 -0.196 19.160 -0.193 19.170 -0.118 19.180 -0.031 19.190  0.070
 19.200  0.127 19.210  0.145 19.220  0.116 19.230  0.048 19.240 -0.006
 19.250 -0.034 19.260 -0.063 19.270 -0.092 19.280 -0.102 19.290 -0.094
 19.300 -0.007 19.310  0.064 19.320  0.100 19.330  0.079 19.340 -0.024
 19.350 -0.129 19.360 -0.169 19.370 -0.153 19.380 -0.081 19.390  0.005
 19.400  0.065 19.410  0.101 19.420  0.083 19.430  0.034 19.440  0.056
 19.450  0.042 19.460  0.013 19.470 -0.090 19.480 -0.166 19.490 -0.208
 19.500 -0.192 19.510 -0.185 19.520 -0.131 19.530 -0.026 19.540  0.058
 19.550  0.069 19.560  0.040 19.570  0.012 19.580  0.021 19.590  0.091
 19.600  0.159 19.610  0.189 19.620  0.152 19.630  0.080 19.640 -0.027
 19.650 -0.084 19.660 -0.091 19.670 -0.045 19.680 -0.011 19.690  0.018
 19.700  0.060 19.710  0.118 19.720  0.119 19.730  0.091 19.740  0.078
 19.750  0.078 19.760  0.107 19.770  0.136 19.780  0.145 19.790  0.120
 19.800  0.101 19.810  0.101 19.820  0.079 19.830  0.045 19.840 -0.013
 19.850 -0.034 19.860 -0.012 19.870 -0.012 19.880 -0.012 19.890 -0.012
 19.900 -0.016 19.910 -0.034 19.920 -0.051 19.930 -0.034 19.940 -0.034
 19.950 -0.048 19.960 -0.096 19.970 -0.180 19.980 -0.237 19.990 -0.220
 20.000 -0.192 20.010 -0.157 20.020 -0.099 20.030 -0.023 20.040  0.061
 20.050  0.118 20.060  0.130 20.070  0.080 20.080 -0.000 20.090 -0.034
 20.100 -0.016 20.110 -0.036 20.120 -0.065 20.130 -0.079 20.140 -0.059
 20.150  0.047 20.160  0.133 20.170  0.168 20.180  0.145 20.190  0.116
 20.200  0.060 20.210 -0.006 20.220 -0.116 20.230 -0.202 20.240 -0.214
 20.250 -0.169 20.260 -0.105 20.270 -0.032 20.280  0.007 20.290  0.061
 20.300  0.101 20.310  0.116 20.320  0.123 20.330  0.123 20.340  0.123
 20.350  0.087 20.360  0.056 20.370  0.056 20.380  0.041 20.390 -0.008
 20.400 -0.043 20.410 -0.090 20.420 -0.102 20.430 -0.124 20.440 -0.124
 20.450 -0.097 20.460 -0.040 20.470  0.040 20.480  0.108 20.490  0.162
 20.500  0.168 20.510  0.088 20.520  0.030 20.530 -0.027 20.540 -0.057
 20.550 -0.057 20.560 -0.041 20.570  0.030 20.580  0.100 20.590  0.180
 20.600  0.154 20.610  0.028 20.620 -0.042 20.630 -0.057 20.640 -0.077
 20.650 -0.115 20.660 -0.180 20.670 -0.192 20.680 -0.121 20.690 -0.013
 20.700  0.033 20.710 -0.026 20.720 -0.113 20.730 -0.169 20.740 -0.153
 20.750 -0.102 20.760  0.007 20.770  0.081 20.780  0.082 20.790  0.030
 20.800  0.002 20.810  0.003 20.820 -0.011 20.830 -0.034 20.840 -0.034
 20.850 -0.034 20.860 -0.034 20.870 -0.050 20.880 -0.094 20.890 -0.102
 20.900 -0.093 20.910 -0.035 20.920  0.022 20.930  0.080 20.940  0.130
 20.950  0.159 20.960  0.148 20.970  0.093 20.980  0.056 20.990  0.056
 21.000  0.078 21.010  0.129 21.020  0.145 21.030  0.127 21.040  0.047
 21.050 -0.039 21.060 -0.110 21.070 -0.124 21.080 -0.102 21.090 -0.113
 21.100 -0.124 21.110 -0.096 21.120 -0.010 21.130  0.047 21.140  0.076
 21.150  0.051 21.160  0.012 21.170 -0.012 21.180 -0.012 21.190 -0.005
 21.200  0.024 21.210  0.073 21.220  0.104 21.230  0.123 21.240  0.123
 21.250  0.123 21.260  0.117 21.270  0.088 21.280  0.059 21.290  0.008
 21.300 -0.012 21.310 -0.012 21.320 -0.033 21.330 -0.012 21.340 -0.012
 21.350 -0.012 21.360 -0.014 21.370 -0.034 21.380 -0.034 21.390 -0.014
 21.400  0.011 21.410 -0.000 21.420 -0.029 21.430 -0.057 21.440 -0.064
 21.450 -0.093 21.460 -0.102 21.470 -0.102 21.480 -0.102 21.490 -0.086
 21.500 -0.012 21.510  0.033 21.520  0.021 21.530 -0.008 21.540 -0.012
 21.550 -0.003 21.560  0.011 21.570  0.032 21.580  0.011 21.590  0.011
 21.600  0.029 21.610  0.031 21.620  0.003 21.630 -0.012 21.640 -0.033
 21.650 -0.079 21.660 -0.079 21.670 -0.079 21.680 -0.078 21.690 -0.057
 21.700 -0.043 21.710 -0.054 21.720 -0.083 21.730 -0.102 21.740 -0.102
 21.750 -0.079 21.760 -0.034 21.770 -0.034 21.780 -0.034 21.790 -0.006
 21.800  0.042 21.810  0.071 21.820  0.078 21.830  0.050 21.840  0.033
 21.850  0.033 21.860  0.057 21.870  0.078 21.880  0.064 21.890  0.056
 21.900  0.078 21.910  0.078 21.920  0.061 21.930  0.056 21.940  0.056
 21.950  0.056 21.960  0.095 21.970  0.127 21.980  0.145 21.990  0.129
 22.000  0.078 22.010 -0.008 22.020 -0.057 22.030 -0.038 22.040 -0.009
 22.050  0.020 22.060  0.018 22.070  0.011 22.080  0.044 22.090  0.090
 22.100  0.118 22.110  0.076 22.120  0.031 22.130 -0.041 22.140 -0.077
 22.150 -0.102 22.160 -0.102 22.170 -0.102 22.180 -0.101 22.190 -0.072
 22.200 -0.057 22.210 -0.077 22.220 -0.083 22.230 -0.112 22.240 -0.108
 22.250 -0.057 22.260  0.023 22.270  0.056 22.280  0.037 22.290  0.005
 22.300 -0.043 22.310 -0.087 22.320 -0.102 22.330 -0.102 22.340 -0.078
 22.350 -0.057 22.360 -0.033 22.370 -0.004 22.380  0.011 22.390  0.011
 22.400  0.011 22.410 -0.000 22.420 -0.012 22.430 -0.012 22.440 -0.012
 22.450 -0.025 22.460 -0.034 22.470 -0.005 22.480  0.043 22.490  0.072
 22.500  0.033 22.510 -0.031 22.520 -0.092 22.530 -0.083 22.540 -0.074
 22.550 -0.016 22.560  0.026 22.570  0.033 22.580  0.061 22.590  0.090
 22.600  0.101 22.610  0.099 22.620  0.078 22.630  0.064 22.640  0.056
 22.650  0.033 22.660  0.033 22.670  0.033 22.680  0.010 22.690 -0.019
 22.700 -0.048 22.710 -0.057 22.720 -0.057 22.730 -0.067 22.740 -0.079
 22.750 -0.102 22.760 -0.118 22.770 -0.089 22.780 -0.041 22.790  0.036
 22.800  0.056 22.810  0.056 22.820  0.034 22.830  0.011 22.840  0.022
 22.850  0.033 22.860  0.056 22.870  0.064 22.880  0.064 22.890  0.014
 22.900 -0.043 22.910 -0.079 22.920 -0.079 22.930 -0.056 22.940 -0.020
 22.950  0.038 22.960  0.075 22.970  0.097 22.980  0.058 22.990  0.001
 23.000 -0.012 23.010 -0.012 23.020  0.013 23.030  0.071 23.040  0.103
 23.050  0.114 23.060  0.085 23.070  0.035 23.080  0.011 23.090  0.034
 23.100  0.092 23.110  0.125 23.120  0.145 23.130  0.145 23.140  0.125
 23.150  0.118 23.160  0.090 23.170  0.027 23.180 -0.058 23.190 -0.072
 23.200 -0.057 23.210 -0.057 23.220 -0.079 23.230 -0.089 23.240 -0.086
 23.250 -0.079 23.260 -0.073 23.270 -0.032 23.280  0.007 23.290  0.008
 23.300 -0.012 23.310 -0.012 23.320  0.010 23.330  0.056 23.340  0.032
 23.350 -0.025 23.360 -0.057 23.370 -0.065 23.380 -0.094 23.390 -0.122
 23.400 -0.111 23.410 -0.024 23.420  0.045 23.430  0.077 23.440  0.041
 23.450 -0.030 23.460 -0.077 23.470 -0.072 23.480 -0.024 23.490 -0.012
 23.500 -0.057 23.510 -0.079 23.520 -0.079 23.530 -0.060 23.540 -0.082
 23.550 -0.111 23.560 -0.109 23.570 -0.059 23.580 -0.001 23.590  0.033
 23.600  0.033 23.610  0.011 23.620  0.003 23.630 -0.026 23.640 -0.055
 23.650 -0.079 23.660 -0.068 23.670 -0.023 23.680  0.035 23.690  0.085
 23.700  0.101 23.710  0.101 23.720  0.078 23.730  0.068 23.740  0.023
 23.750 -0.034 23.760 -0.050 23.770 -0.009 23.780  0.030 23.790  0.033
 23.800  0.033 23.810  0.064 23.820  0.100 23.830  0.145 23.840  0.122
 23.850  0.065 23.860  0.033 23.870  0.033 23.880  0.019 23.890  0.011
 23.900 -0.016 23.910 -0.034 23.920 -0.034 23.930 -0.012 23.940 -0.019
 23.950 -0.034 23.960 -0.015 23.970 -0.015 23.980 -0.044 23.990 -0.073
 24.000 -0.057 24.010 -0.050 24.020 -0.022 24.030 -0.012 24.040  0.011
 24.050  0.011 24.060  0.011 24.070  0.011 24.080  0.005 24.090 -0.012
 24.100 -0.012 24.110  0.012 24.120  0.033 24.130  0.033 24.140  0.033
 24.150  0.056 24.160  0.066 24.170  0.061 24.180  0.034 24.190  0.063
 24.200  0.092 24.210  0.101 24.220  0.093 24.230  0.036 24.240 -0.022
 24.250 -0.057 24.260 -0.050 24.270 -0.022 24.280  0.007 24.290  0.033
 24.300  0.051 24.310  0.109 24.320  0.166 24.330  0.157 24.340  0.100
 24.350  0.024 24.360 -0.085 24.370 -0.171 24.380 -0.228 24.390 -0.216
 24.400 -0.106 24.410 -0.013 24.420  0.028 24.430  0.010 24.440 -0.026
 24.450 -0.070 24.460 -0.079 24.470 -0.050 24.480  0.008 24.490  0.033
 24.500  0.033 24.510  0.027 24.520 -0.002 24.530 -0.012 24.540 -0.034
 24.550 -0.034 24.560 -0.034 24.570  0.009 24.580  0.061 24.590  0.078
 24.600  0.096 24.610  0.102 24.620  0.123 24.630  0.123 24.640  0.102
 24.650  0.051 24.660  0.033 24.670  0.016 24.680  0.034 24.690  0.048
 24.700  0.033 24.710  0.033 24.720  0.007 24.730 -0.012 24.740 -0.044
 24.750 -0.079 24.760 -0.102 24.770 -0.089 24.780 -0.060 24.790 -0.009
 24.800  0.011 24.810 -0.005 24.820 -0.033 24.830 -0.107 24.840 -0.136
 24.850 -0.147 24.860 -0.122 24.870 -0.102 24.880 -0.116 24.890 -0.104
 24.900 -0.075 24.910 -0.046 24.920 -0.017 24.930  0.011 24.940  0.018
 24.950  0.033 24.960  0.013 24.970 -0.008 24.980  0.021 24.990  0.033
 25.000  0.011 25.010  0.011 25.020  0.023 25.030  0.052 25.040  0.056
 25.050  0.056 25.060  0.040 25.070  0.012 25.080  0.011 25.090  0.011
 25.100  0.011 25.110 -0.015 25.120 -0.057 25.130 -0.086 25.140 -0.102
 25.150 -0.088 25.160 -0.013 25.170  0.062 25.180  0.101 25.190  0.086
 25.200  0.042 25.210  0.013 25.220 -0.034 25.230 -0.034 25.240 -0.018
 25.250  0.011 25.260  0.046 25.270  0.078 25.280  0.059 25.290  0.030
 25.300  0.020 25.310  0.048 25.320  0.056 25.330  0.050 25.340  0.021
 25.350 -0.007 25.360 -0.010 25.370  0.019 25.380  0.033 25.390  0.012
 25.400 -0.061 25.410 -0.090 25.420 -0.068 25.430 -0.010 25.440  0.040
 25.450  0.069 25.460  0.078 25.470  0.056 25.480  0.056 25.490  0.056
 25.500  0.033 25.510  0.027 25.520  0.011 25.530  0.030 25.540  0.033
 25.550  0.033 25.560  0.033 25.570  0.012 25.580 -0.017 25.590 -0.034
 25.600 -0.016 25.610  0.035 25.620  0.072 25.630  0.101 25.640  0.101
 25.650  0.069 25.660  0.012 25.670 -0.029 25.680 -0.033 25.690 -0.012
 25.700 -0.012 25.710  0.008 25.720  0.040 25.730  0.068 25.740  0.039
 25.750 -0.012 25.760 -0.047 25.770 -0.092 25.780 -0.121 25.790 -0.147
 25.800 -0.138 25.810 -0.109 25.820 -0.059 25.830 -0.029 25.840 -0.024
 25.850 -0.052 25.860 -0.079 25.870 -0.071 25.880 -0.028 25.890  0.030
 25.900  0.083 25.910  0.111 25.920  0.106 25.930  0.076 25.940  0.019
 25.950 -0.025 25.960 -0.015 25.970 -0.031 25.980 -0.022 25.990 -0.018
 26.000 -0.012 26.010  0.011 26.020  0.011 26.030  0.011 26.040 -0.015
 26.050 -0.043 26.060 -0.057 26.070 -0.078 26.080 -0.079 26.090 -0.079
 26.100 -0.061 26.110 -0.031 26.120  0.019 26.130  0.062 26.140  0.057
 26.150  0.029 26.160  0.011 26.170 -0.006 26.180 -0.012 26.190 -0.012
 26.200 -0.039 26.210 -0.057 26.220 -0.079 26.230 -0.059 26.240  0.014
 26.250  0.078 26.260  0.113 26.270  0.145 26.280  0.108 26.290  0.078
 26.300  0.069 26.310  0.071 26.320  0.056 26.330  0.005 26.340 -0.024
 26.350 -0.034 26.360 -0.010 26.370  0.019 26.380  0.019 26.390  0.011
 26.400  0.033 26.410  0.033 26.420  0.050 26.430  0.055 26.440  0.026
 26.450  0.011 26.460  0.011 26.470  0.014 26.480  0.043 26.490  0.023
 26.500 -0.057 26.510 -0.102 26.520 -0.077 26.530 -0.019 26.540  0.011
 26.550  0.011 26.560  0.011 26.570 -0.011 26.580  0.011 26.590  0.022
 26.600  0.015 26.610 -0.015 26.620 -0.073 26.630 -0.102 26.640 -0.102
 26.650 -0.079 26.660 -0.079 26.670 -0.062 26.680 -0.034 26.690 -0.027
 26.700 -0.025 26.710 -0.034 26.720 -0.031 26.730 -0.002 26.740  0.011
 26.750  0.011 26.760  0.017 26.770  0.021 26.780 -0.008 26.790 -0.012
 26.800 -0.012 26.810 -0.012 26.820 -0.012 26.830  0.011 26.840  0.011
 26.850  0.011 26.860 -0.012 26.870 -0.020 26.880 -0.020 26.890 -0.012
 26.900 -0.016 26.910 -0.045 26.920 -0.040 26.930 -0.033 26.940 -0.005
 26.950 -0.003 26.960 -0.032 26.970 -0.057 26.980 -0.057 26.990 -0.041
 27.000 -0.012 27.010  0.017 27.020  0.033 27.030  0.052 27.040  0.056
 27.050  0.056 27.060  0.056 27.070  0.056 27.080  0.028 27.090 -0.001
 27.100 -0.012 27.110 -0.010 27.120  0.011 27.130  0.011 27.140  0.011
 27.150  0.015 27.160  0.044 27.170  0.038 27.180  0.010 27.190 -0.019
 27.200 -0.021 27.210  0.008 27.220  0.059 27.230  0.098 27.240  0.123
 27.250  0.145 27.260  0.117 27.270  0.063 27.280 -0.005 27.290 -0.059
 27.300 -0.088 27.310 -0.102 27.320 -0.080 27.330 -0.051 27.340 -0.034
 27.350 -0.016 27.360 -0.034 27.370 -0.034 27.380 -0.034 27.390 -0.014
 27.400  0.015 27.410  0.033 27.420  0.033 27.430  0.033 27.440  0.033
 27.450  0.033 27.460  0.013 27.470  0.007 27.480 -0.012 27.490 -0.044
 27.500 -0.057 27.510 -0.057 27.520 -0.044 27.530 -0.034 27.540 -0.009
 27.550  0.020 27.560  0.033 27.570  0.033 27.580 -0.012 27.590 -0.012
 27.600  0.006 27.610  0.011 27.620  0.011 27.630 -0.004 27.640 -0.012
 27.650 -0.012 27.660 -0.012 27.670  0.022 27.680  0.079 27.690  0.101
 27.700  0.087 27.710  0.058 27.720  0.007 27.730 -0.032 27.740 -0.089
 27.750 -0.124 27.760 -0.112 27.770 -0.054 27.780 -0.015 27.790  0.013
 27.800  0.033 27.810  0.033 27.820  0.055 27.830  0.028 27.840 -0.001
 27.850 -0.048 27.860 -0.079 27.870 -0.079 27.880 -0.065 27.890 -0.057
 27.900 -0.030 27.910 -0.001 27.920  0.011 27.930 -0.014 27.940 -0.064
 27.950 -0.066 27.960 -0.057 27.970 -0.034 27.980 -0.024 27.990  0.004
 28.000  0.011 28.010  0.039 28.020  0.056 28.030  0.056 28.040  0.030
 28.050  0.011 28.060  0.011 28.070  0.011 28.080  0.011 28.090  0.022
 28.100  0.051 28.110  0.031 28.120  0.003 28.130 -0.026 28.140 -0.034
 28.150 -0.007 28.160  0.011 28.170 -0.006 28.180 -0.034 28.190 -0.027
 28.200  0.002 28.210  0.030 28.220  0.052 28.230  0.033 28.240  0.001
 28.250 -0.034 28.260 -0.006 28.270  0.036 28.280  0.074 28.290  0.078
 28.300  0.069 28.310  0.025 28.320 -0.011 28.330 -0.034 28.340 -0.046
 28.350 -0.075 28.360 -0.076 28.370 -0.026 28.380 -0.012 28.390  0.009
 28.400  0.029 28.410  0.011 28.420 -0.006 28.430 -0.034 28.440 -0.034
 28.450 -0.048 28.460 -0.037 28.470 -0.008 28.480  0.021 28.490  0.033
 28.500  0.011 28.510 -0.002 28.520 -0.047 28.530 -0.095 28.540 -0.122
 28.550 -0.093 28.560 -0.064 28.570 -0.035 28.580  0.016 28.590  0.056
 28.600  0.096 28.610  0.123 28.620  0.123 28.630  0.109 28.640  0.059
 28.650  0.033 28.660  0.033 28.670  0.033 28.680  0.033 28.690  0.033
 28.700  0.033 28.710  0.013 28.720  0.011 28.730  0.001 28.740  0.004
 28.750 -0.012 28.760 -0.018 28.770 -0.034 28.780 -0.053 28.790 -0.029
 28.800  0.029 28.810  0.071 28.820  0.078 28.830  0.073 28.840  0.044
 28.850  0.033 28.860 -0.014 28.870 -0.042 28.880 -0.057 28.890 -0.057
 28.900 -0.052 28.910 -0.034 28.920 -0.034 28.930 -0.034 28.940 -0.027
 28.950 -0.012 28.960 -0.032 28.970 -0.105 28.980 -0.124 28.990 -0.124
 29.000 -0.102 29.010 -0.095 29.020 -0.067 29.030 -0.057 29.040 -0.009
 29.050  0.011 29.060  0.011 29.070 -0.011 29.080  0.005 29.090 -0.024
 29.100 -0.052 29.110 -0.057 29.120 -0.049 29.130 -0.020 29.140  0.009
 29.150  0.038 29.160  0.056 29.170  0.038 29.180  0.010 29.190 -0.019
 29.200 -0.034 29.210 -0.034 29.220 -0.034 29.230 -0.024 29.240 -0.012
 29.250 -0.012 29.260  0.023 29.270  0.056 29.280  0.056 29.290  0.033
 29.300  0.042 29.310  0.071 29.320  0.100 29.330  0.106 29.340  0.123
 29.350  0.105 29.360  0.078 29.370  0.070 29.380  0.041 29.390  0.012
 29.400 -0.016 29.410 -0.034 29.420 -0.017 29.430  0.033 29.440  0.033
 29.450  0.033 29.460  0.053 29.470  0.033 29.480  0.013 29.490 -0.044
 29.500 -0.057 29.510 -0.022 29.520  0.036 29.530  0.056 29.540  0.030
 29.550  0.002 29.560 -0.012 29.570 -0.033 29.580 -0.034 29.590 -0.034
 29.600 -0.052 29.610 -0.034 29.620 -0.018 29.630  0.011 29.640  0.011
 29.650  0.011 29.660  0.011 29.670 -0.006 29.680 -0.013 29.690 -0.034
 29.700 -0.034 29.710 -0.015 29.720 -0.012 29.730 -0.012 29.740  0.004
 29.750  0.033 29.760  0.027 29.770 -0.002 29.780 -0.031 29.790 -0.057
 29.800 -0.048 29.810 -0.019 29.820 -0.012 29.830  0.011 29.840  0.011
 29.850  0.011 29.860 -0.014 29.870 -0.034 29.880 -0.020 29.890 -0.012
 29.900  0.015 29.910  0.044 29.920  0.056 29.930  0.055 29.940  0.026
 29.950  0.011 29.960 -0.009 29.970 -0.015 29.980 -0.034 29.990 -0.050
 30.000 -0.034 30.010 -0.034 30.020 -0.022 30.030  0.007 30.040 -0.012
 30.050 -0.021 30.060 -0.050 30.070 -0.057 30.080 -0.012 30.090 -0.012
 30.100  0.006 30.110  0.031 30.120  0.011 30.130  0.011 30.140  0.011
 30.150  0.033 30.160  0.033 30.170  0.016 30.180  0.032 30.190  0.018
 30.200  0.020 30.210  0.011 30.220  0.014 30.230  0.033 30.240  0.017
 30.250 -0.012 30.260  0.011 30.270  0.023 30.280  0.071 30.290  0.078
 30.300  0.069 30.310  0.040 30.320 -0.010 30.330 -0.012 30.340 -0.012
 30.350  0.006 30.360  0.011 30.370  0.011 30.380  0.011 30.390  0.031
 30.400  0.060 30.410  0.089 30.420  0.083 30.430  0.056 30.440  0.056
 30.450  0.042 30.460  0.013 30.470 -0.034 30.480 -0.034 30.490 -0.034
 30.500 -0.012 30.510 -0.012 30.520 -0.012 30.530 -0.012 30.540 -0.009
 30.550  0.011 30.560  0.011 30.570 -0.033 30.580 -0.040 30.590 -0.068
 30.600 -0.079 30.610 -0.079 30.620 -0.071 30.630 -0.057 30.640 -0.036
 30.650 -0.007 30.660  0.021 30.670  0.050 30.680  0.056 30.690  0.041
 30.700 -0.003 30.710 -0.032 30.720 -0.034 30.730 -0.044 30.740 -0.073
 30.750 -0.079 30.760 -0.073 30.770 -0.032 30.780 -0.012 30.790 -0.012
 30.800 -0.003 30.810  0.026 30.820  0.012 30.830 -0.040 30.840 -0.045
 30.850 -0.016 30.860 -0.010 30.870  0.011 30.880  0.025 30.890  0.033
 30.900  0.029 30.910  0.011 30.920  0.011 30.930  0.011 30.940  0.011
 30.950  0.011 30.960  0.030 30.970  0.056 30.980  0.056 30.990  0.039
 31.000  0.011 31.010  0.017 31.020  0.033 31.030  0.014 31.040 -0.015
 31.050 -0.034 31.060 -0.034 31.070 -0.034 31.080 -0.034 31.090 -0.034
 31.100 -0.016 31.110  0.012 31.120  0.041 31.130  0.070 31.140  0.057
 31.150  0.029 31.160  0.011 31.170  0.011 31.180  0.011 31.190  0.011
 31.200  0.024 31.210  0.033 31.220  0.011 31.230  0.021 31.240  0.033
 31.250  0.011 31.260 -0.041 31.270 -0.057 31.280 -0.038 31.290 -0.012
 31.300 -0.012 31.310 -0.012 31.320 -0.012 31.330 -0.012 31.340 -0.012
 31.350  0.006 31.360  0.011 31.370  0.011 31.380  0.011 31.390 -0.010
 31.400  0.011 31.410  0.011 31.420  0.011 31.430 -0.013 31.440 -0.027
 31.450 -0.012 31.460 -0.012 31.470  0.014 31.480  0.033 31.490  0.017
 31.500  0.011 31.510  0.039 31.520  0.056 31.530  0.074 31.540  0.030
 31.550  0.002 31.560 -0.012 31.570 -0.012 31.580 -0.006 31.590  0.011
 31.600 -0.007 31.610 -0.012 31.620 -0.004 31.630  0.025 31.640  0.033
 31.650  0.029 31.660 -0.000 31.670 -0.012 31.680 -0.034 31.690 -0.034
 31.700 -0.034 31.710 -0.015 31.720 -0.012 31.730 -0.002 31.740  0.011
 31.750  0.011 31.760 -0.018 31.770 -0.034 31.780 -0.034 31.790 -0.012
 31.800 -0.012 31.810 -0.012 31.820 -0.012 31.830  0.033 31.840  0.045
 31.850  0.074 31.860  0.078 31.870  0.078 31.880  0.064 31.890  0.035
 31.900  0.006 31.910 -0.023 31.920 -0.051 31.930 -0.057 31.940 -0.064
 31.950 -0.066 31.960 -0.017 31.970  0.033 31.980  0.043 31.990  0.056
 32.000  0.056 32.010  0.027 32.020 -0.002 32.030 -0.031 32.040 -0.034
 32.050 -0.034 32.060 -0.019 32.070  0.010 32.080  0.038 32.090  0.067
 32.100  0.078 32.110  0.076 32.120  0.039 32.130 -0.018 32.140 -0.034
 32.150 -0.052 32.160 -0.024 32.170 -0.029 32.180 -0.034 32.190 -0.034
 32.200 -0.021 32.210 -0.012 32.220 -0.012 32.230 -0.002 32.240  0.011
 32.250  0.011 32.260  0.011 32.270  0.011 32.280 -0.008 32.290 -0.012
 32.300 -0.012 32.310  0.003 32.320  0.011 32.330  0.038 32.340  0.056
 32.350  0.056 32.360  0.033 32.370  0.033 32.380  0.033 32.390  0.033
 32.400  0.011 32.410 -0.000 32.420 -0.012 32.430 -0.033 32.440 -0.012
 32.450 -0.012 32.460  0.008 32.470  0.014 32.480  0.033 32.490  0.017
 32.500  0.011 32.510 -0.018 32.520 -0.022 32.530  0.007 32.540 -0.012
 32.550 -0.012 32.560 -0.027 32.570 -0.034 32.580 -0.034 32.590 -0.034
 32.600 -0.016 32.610  0.009 32.620 -0.004 32.630  0.011 32.640  0.011
 32.650  0.011 32.660  0.011 32.670  0.011 32.680  0.010 32.690 -0.012
 32.700 -0.012 32.710 -0.012 32.720 -0.031 32.730 -0.012 32.740 -0.012
 32.750 -0.012 32.760 -0.012 32.770 -0.024 32.780 -0.015 32.790 -0.012
 32.800 -0.003 32.810  0.011 32.820  0.032 32.830  0.033 32.840  0.021
 32.850 -0.007 32.860 -0.014 32.870 -0.050 32.880 -0.079 32.890 -0.059
 32.900 -0.030 32.910 -0.001 32.920  0.011 32.930  0.034 32.940  0.056
 32.950  0.056 32.960  0.056 32.970  0.033 32.980  0.023 32.990 -0.006
 33.000 -0.012 33.010 -0.028 33.020  0.001 33.030  0.011 33.040  0.011
 33.050  0.002 33.060  0.003 33.070  0.032 33.080  0.033 33.090  0.033
 33.100 -0.003 33.110 -0.036 33.120 -0.057 33.130 -0.042 33.140 -0.034
 33.150 -0.034 33.160 -0.024 33.170  0.005 33.180  0.034 33.190  0.056
 33.200  0.042 33.210  0.053 33.220  0.037 33.230  0.046 33.240  0.017
 33.250 -0.012 33.260 -0.034 33.270 -0.047 33.280 -0.038 33.290  0.013
 33.300  0.033 33.310  0.018 33.320  0.011 33.330 -0.012 33.340 -0.012
 33.350 -0.030 33.360 -0.034 33.370 -0.026 33.380  0.003 33.390  0.031
 33.400  0.051 33.410  0.033 33.420  0.016 33.430  0.010 33.440 -0.019
 33.450 -0.034 33.460 -0.054 33.470 -0.034 33.480 -0.034 33.490 -0.018
 33.500  0.011 33.510  0.017 33.520  0.021 33.530 -0.008 33.540 -0.034
 33.550 -0.025 33.560 -0.012 33.570 -0.012 33.580 -0.012 33.590 -0.000
 33.600  0.011 33.610  0.011 33.620  0.011 33.630  0.011 33.640 -0.010
 33.650 -0.007 33.660  0.011 33.670  0.011 33.680  0.011 33.690  0.011
 33.700  0.011 33.710 -0.009 33.720 -0.015 33.730 -0.044 33.740 -0.041
 33.750 -0.012 33.760  0.011 33.770  0.011 33.780  0.030 33.790  0.028
 33.800 -0.021 33.810 -0.019 33.820  0.010 33.830  0.033 33.840  0.033
 33.850  0.015 33.860 -0.012 33.870 -0.012 33.880  0.003 33.890  0.011
 33.900  0.011 33.910  0.011 33.920  0.011 33.930  0.011 33.940  0.003
 33.950 -0.012 33.960 -0.012 33.970 -0.015 33.980 -0.024 33.990 -0.012
 34.000 -0.012 34.010 -0.018 34.020 -0.022 34.030 -0.012 34.040  0.013
 34.050  0.024 34.060  0.011 34.070  0.011 34.080  0.016 34.090  0.021
 34.100  0.029 34.110  0.011 34.120  0.019 34.130  0.033 34.140  0.033
 34.150  0.029 34.160  0.011 34.170 -0.006 34.180 -0.012 34.190 -0.019
 34.200 -0.034 34.210 -0.034 34.220 -0.031 34.230 -0.002 34.240  0.027
 34.250  0.033 34.260  0.027 34.270 -0.002 34.280 -0.012 34.290 -0.034
 34.300 -0.034 34.310 -0.019 34.320 -0.012 34.330 -0.012 34.340 -0.024
 34.350 -0.034 34.360 -0.012 34.370 -0.004 34.380  0.011 34.390  0.011
 34.400 -0.012 34.410 -0.012 34.420 -0.012 34.430 -0.012 34.440 -0.012
 34.450 -0.012 34.460 -0.012 34.470 -0.012 34.480 -0.012 34.490 -0.012
 34.500 -0.012 34.510 -0.012 34.520 -0.012 34.530  0.007 34.540 -0.012
 34.550 -0.003 34.560  0.011 34.570  0.032 34.580  0.028 34.590 -0.001
 34.600 -0.030 34.610 -0.057 34.620 -0.057 34.630 -0.042 34.640  0.007
 34.650  0.011 34.660  0.011 34.670  0.011 34.680  0.012 34.690  0.040
 34.700  0.042 34.710  0.013 34.720 -0.012 34.730 -0.022 34.740 -0.034
 34.750 -0.034 34.760 -0.006 34.770  0.011 34.780  0.030 34.790  0.036
 34.800  0.056 34.810  0.025 34.820  0.011 34.830  0.038 34.840  0.056
 34.850  0.056 34.860  0.033 34.870  0.033 34.880  0.019 34.890  0.011
 34.900  0.011 34.910  0.011 34.920  0.011 34.930  0.011 34.940  0.003
 34.950 -0.025 34.960 -0.034 34.970 -0.008 34.980  0.021 34.990  0.033
/&  ----------  END OF DATA FOR CHANNEL 1  ----------
UNCORRECTED ACCELEROGRAM DATA              PROCESSED: 06/30/2011
0911131
11/12/2009 23:09:53 (GMT)               (ORIGIN: 11/12/2009 23:09:53 GMT)
                                   TRIGGER TIME: 11/12/2009 23:10:03.000 GMT
STATION NO.          0.000N    0.000E  QDR       S/N  673 (3  CHNS OF 3  AT STA)
QDR S/N 673
CHAN  2: NS       (STA CHN:  2)               
UNIVERSIDAD DE CHILE - RENADIC
HYPOCENTER:   0.000N    0.000E  H=   0.0KM   ML= 0.00
INSTR PERIOD = 0.0391 SEC,  DAMPING =0.7000,  SENSITIVITY =1.250 VDC/G
NO. OF POINTS =   3500  RECORD LENGTH = 35.000 SEC
UNITS OF UNCOR ACCEL ARE SEC AND G/10.     MAX  =  0.084 G, AT   3.940 SEC
RMS ACCEL OF COMPLETE RECORD = 0.012 G
    2    1    2    3    3    0    1    0    0    0    0    0    0    0    0    0
    0    0    0    0    0    0    0    0    0    0    0 3500    7   11   30    0
    0    0    0    0    0    0    0    0    0    0    0    0    0    0    0    0
    0    0    0    0    0    0    0    0    0    0    0    0    0    0    0    0
    0    0    0    0    0    0    0    0    0    0    0    0    0    0    0    0
    0    0    0    0    0    0    0    0    0    0    0    0    0    0    0    0
    0    0    0    0
     0.039     0.700    35.000     0.012     0.100     1.250     0.084     3.940
    25.575     0.000     0.000     0.000    10.000     0.000    10.000    10.000
     0.000     0.000     0.000     0.000     0.000     0.000     0.000     0.000
     0.000     0.000     0.000     0.000     0.000     0.000     0.000     0.000
     0.000     0.000     0.000     0.000     0.000     0.000     0.000     0.000
     0.000     0.000     0.000     0.000     0.000     0.000     0.000     0.000
     0.000     0.000
  0.000 -0.079  0.010 -0.072  0.020 -0.044  0.030 -0.035  0.040 -0.010
  0.050  0.009  0.060 -0.006  0.070  0.009  0.080  0.031  0.090  0.020
  0.100  0.009  0.110  0.008  0.120 -0.020  0.130 -0.035  0.140 -0.014
  0.150 -0.013  0.160 -0.013  0.170 -0.013  0.180  0.009  0.190  0.002
  0.200  0.001  0.210  0.009  0.220  0.031  0.230  0.022  0.240 -0.006
  0.250 -0.013  0.260 -0.000  0.270  0.031  0.280  0.013  0.290 -0.037
  0.300 -0.048  0.310 -0.005  0.320  0.073  0.330  0.070  0.340  0.031
  0.350 -0.008  0.360 -0.013  0.370 -0.005  0.380  0.023  0.390  0.011
  0.400 -0.017  0.410 -0.045  0.420 -0.040  0.430 -0.033  0.440  0.009
  0.450  0.009  0.460  0.009  0.470 -0.042  0.480 -0.079  0.490 -0.047
  0.500 -0.013  0.510  0.066  0.520  0.097  0.530  0.079  0.540  0.029
  0.550  0.009  0.560  0.009  0.570  0.009  0.580 -0.045  0.590 -0.079
  0.600 -0.079  0.610 -0.057  0.620 -0.041  0.630  0.016  0.640  0.072
  0.650  0.049  0.660  0.021  0.670 -0.024  0.680 -0.035  0.690 -0.028
  0.700  0.001  0.710  0.009  0.720 -0.006  0.730  0.041  0.740  0.069
  0.750  0.053  0.760  0.041  0.770 -0.028  0.780 -0.075  0.790 -0.098
  0.800 -0.079  0.810 -0.049  0.820  0.008  0.830  0.064  0.840  0.097
  0.850  0.080  0.860  0.052  0.870  0.023  0.880 -0.005  0.890 -0.033
  0.900 -0.035  0.910 -0.035  0.920 -0.051  0.930 -0.079  0.940 -0.064
  0.950 -0.008  0.960  0.048  0.970  0.053  0.980  0.034  0.990 -0.006
  1.000 -0.013  1.010 -0.013  1.020 -0.013  1.030  0.006  1.040  0.053
  1.050  0.045  1.060  0.001  1.070 -0.013  1.080  0.009  1.090 -0.002
  1.100 -0.013  1.110 -0.013  1.120  0.003  1.130  0.045  1.140  0.053
  1.150  0.023  1.160 -0.034  1.170 -0.073  1.180 -0.079  1.190 -0.079
  1.200  0.005  1.210  0.070  1.220  0.072  1.230  0.034  1.240 -0.022
  1.250 -0.035  1.260 -0.047  1.270 -0.066  1.280 -0.020  1.290  0.105
  1.300  0.154  1.310  0.081  1.320 -0.031  1.330 -0.106  1.340 -0.111
  1.350 -0.065  1.360 -0.013  1.370 -0.013  1.380  0.001  1.390  0.050
  1.400  0.093  1.410  0.054  1.420 -0.019  1.430 -0.057  1.440 -0.079
  1.450 -0.065  1.460 -0.018  1.470  0.064  1.480  0.119  1.490  0.072
  1.500 -0.013  1.510 -0.050  1.520 -0.035  1.530 -0.016  1.540 -0.013
  1.550 -0.021  1.560 -0.049  1.570 -0.035  1.580 -0.002  1.590  0.043
  1.600  0.018  1.610 -0.060  1.620 -0.093  1.630 -0.036  1.640  0.028
  1.650  0.049  1.660  0.042  1.670  0.053  1.680  0.052  1.690  0.024
  1.700  0.009  1.710  0.009  1.720  0.024  1.730 -0.032  1.740 -0.072
  1.750 -0.035  1.760  0.022  1.770  0.066  1.780  0.094  1.790  0.092
  1.800  0.027  1.810 -0.042  1.820 -0.120  1.830 -0.112  1.840 -0.056
  1.850 -0.017  1.860  0.011  1.870  0.031  1.880  0.017  1.890 -0.051
  1.900 -0.070  1.910 -0.013  1.920  0.026  1.930  0.031  1.940  0.038
  1.950  0.040  1.960  0.012  1.970 -0.064  1.980 -0.091  1.990 -0.047
  2.000  0.031  2.010  0.060  2.020  0.088  2.030  0.097  2.040  0.029
  2.050  0.009  2.060  0.009  2.070  0.009  2.080  0.004  2.090 -0.035
  2.100 -0.074  2.110 -0.053  2.120  0.003  2.130  0.003  2.140 -0.033
  2.150 -0.083  2.160 -0.111  2.170 -0.089  2.180  0.011  2.190  0.060
  2.200  0.075  2.210  0.075  2.220  0.053  2.230  0.063  2.240  0.075
  2.250  0.031  2.260 -0.075  2.270 -0.122  2.280 -0.104  2.290 -0.054
  2.300 -0.035  2.310 -0.005  2.320  0.073  2.330  0.119  2.340  0.096
  2.350  0.023  2.360 -0.057  2.370 -0.041  2.380  0.016  2.390  0.031
  2.400 -0.004  2.410 -0.088  2.420 -0.139  2.430 -0.120  2.440 -0.035
  2.450  0.049  2.460  0.114  2.470  0.116  2.480  0.088  2.490  0.075
  2.500  0.053  2.510  0.013  2.520 -0.059  2.530 -0.079  2.540 -0.054
  2.550 -0.026  2.560  0.002  2.570  0.009  2.580  0.009  2.590 -0.002
  2.600 -0.048  2.610 -0.077  2.620 -0.041  2.630  0.001  2.640  0.030
  2.650  0.080  2.660  0.087  2.670  0.042  2.680 -0.035  2.690 -0.035
  2.700 -0.021  2.710 -0.013  2.720  0.006  2.730 -0.022  2.740 -0.003
  2.750  0.031  2.760  0.003  2.770 -0.013  2.780  0.006  2.790  0.034
  2.800  0.045  2.810  0.001  2.820 -0.034  2.830 -0.062  2.840 -0.090
  2.850 -0.083  2.860 -0.007  2.870  0.061  2.880  0.089  2.890  0.097
  2.900  0.067  2.910 -0.000  2.920 -0.035  2.930 -0.033  2.940  0.016
  2.950  0.031  2.960  0.031  2.970 -0.013  2.980 -0.003  2.990  0.009
  3.000 -0.013  3.010 -0.050  3.020 -0.022  3.030 -0.013  3.040 -0.013
  3.050 -0.004  3.060  0.009  3.070 -0.012  3.080 -0.089  3.090 -0.122
  3.100 -0.087  3.110 -0.009  3.120  0.055  3.130  0.111  3.140  0.119
  3.150  0.115  3.160  0.076  3.170  0.020  3.180 -0.079  3.190 -0.108
  3.200 -0.109  3.210 -0.062  3.220  0.020  3.230  0.066  3.240  0.022
  3.250  0.031  3.260  0.053  3.270  0.066  3.280  0.057  3.290  0.007
  3.300 -0.013  3.310 -0.013  3.320  0.030  3.330  0.048  3.340  0.020
  3.350 -0.061  3.360 -0.097  3.370 -0.025  3.380  0.060  3.390  0.096
  3.400  0.049  3.410 -0.000  3.420 -0.085  3.430 -0.166  3.440 -0.152
  3.450 -0.070  3.460  0.062  3.470  0.116  3.480  0.078  3.490  0.006
  3.500 -0.057  3.510 -0.100  3.520 -0.088  3.530 -0.023  3.540  0.056
  3.550  0.084  3.560  0.082  3.570  0.033  3.580 -0.023  3.590 -0.057
  3.600 -0.039  3.610  0.033  3.620  0.053  3.630  0.039  3.640 -0.009
  3.650 -0.013  3.660 -0.044  3.670 -0.079  3.680 -0.077  3.690 -0.028
  3.700 -0.013  3.710  0.007  3.720  0.060  3.730  0.107  3.740  0.103
  3.750  0.053  3.760 -0.053  3.770 -0.100  3.780 -0.100  3.790 -0.095
  3.800 -0.039  3.810  0.002  3.820  0.009  3.830  0.031  3.840  0.020
  3.850 -0.008  3.860 -0.013  3.870 -0.005  3.880  0.009  3.890 -0.011
  3.900 -0.030  3.910 -0.013  3.920 -0.029  3.930 -0.056  3.940 -0.028
  3.950  0.014  3.960  0.070  3.970  0.075  3.980  0.056  3.990 -0.000
  4.000 -0.057  4.010 -0.072  4.020 -0.032  4.030  0.006  4.040  0.012
  4.050  0.040  4.060  0.068  4.070  0.075  4.080  0.053  4.090  0.053
  4.100  0.071  4.110  0.072  4.120  0.016  4.130 -0.027  4.140 -0.035
  4.150 -0.035  4.160 -0.045  4.170 -0.090  4.180 -0.121  4.190 -0.057
  4.200  0.001  4.210  0.029  4.220  0.013  4.230  0.041  4.240  0.069
  4.250  0.053  4.260 -0.009  4.270 -0.069  4.280 -0.079  4.290 -0.054
  4.300 -0.026  4.310 -0.013  4.320  0.009  4.330  0.059  4.340  0.075
  4.350  0.040  4.360  0.008  4.370 -0.005  4.380  0.023  4.390  0.031
  4.400 -0.021  4.410 -0.057  4.420 -0.023  4.430  0.031  4.440  0.031
  4.450  0.018  4.460  0.009  4.470 -0.009  4.480  0.029  4.490  0.069
  4.500  0.031  4.510 -0.047  4.520 -0.079  4.530 -0.079  4.540 -0.098
  4.550 -0.061  4.560 -0.005  4.570  0.031  4.580 -0.001  4.590 -0.035
  4.600  0.018  4.610  0.099  4.620  0.111  4.630  0.055  4.640 -0.029
  4.650 -0.057  4.660 -0.035  4.670  0.021  4.680  0.074  4.690  0.039
  4.700 -0.017  4.710 -0.073  4.720 -0.075  4.730 -0.028  4.740  0.073
  4.750  0.097  4.760  0.041  4.770 -0.028  4.780 -0.075  4.790 -0.054
  4.800 -0.026  4.810  0.017  4.820  0.031  4.830  0.009  4.840  0.009
  4.850  0.009  4.860  0.011  4.870  0.031  4.880  0.017  4.890  0.009
  4.900  0.005  4.910 -0.023  4.920 -0.051  4.930 -0.011  4.940  0.038
  4.950  0.040  4.960 -0.007  4.970 -0.035  4.980 -0.035  4.990 -0.035
  5.000 -0.013  5.010  0.044  5.020  0.075  5.030  0.038  5.040 -0.018
  5.050 -0.048  5.060 -0.020  5.070 -0.013  5.080 -0.013  5.090 -0.013
  5.100 -0.013  5.110  0.008  5.120 -0.005  5.130  0.023  5.140  0.011
  5.150 -0.043  5.160 -0.068  5.170 -0.006  5.180  0.031  5.190  0.024
  5.200 -0.017  5.210 -0.035  5.220 -0.009  5.230 -0.000  5.240 -0.013
  5.250  0.009  5.260  0.031  5.270  0.007  5.280 -0.031  5.290 -0.057
  5.300 -0.048  5.310  0.010  5.320  0.052  5.330  0.053  5.340  0.042
  5.350  0.031  5.360 -0.013  5.370 -0.020  5.380 -0.035  5.390 -0.055
  5.400 -0.030  5.410  0.009  5.420  0.031  5.430  0.030  5.440 -0.020
  5.450 -0.035  5.460  0.004  5.470  0.057  5.480  0.075  5.490  0.075
  5.500  0.031  5.510 -0.025  5.520 -0.069  5.530 -0.042  5.540 -0.013
  5.550 -0.021  5.560 -0.035  5.570  0.008  5.580  0.069  5.590  0.142
  5.600  0.128  5.610  0.023  5.620 -0.102  5.630 -0.144  5.640 -0.084
  5.650  0.014  5.660  0.021  5.670 -0.007  5.680 -0.035  5.690 -0.035
  5.700 -0.021  5.710  0.007  5.720  0.009  5.730 -0.000  5.740 -0.028
  5.750 -0.013  5.760  0.028  5.770  0.088  5.780  0.097  5.790  0.026
  5.800 -0.030  5.810 -0.071  5.820 -0.036  5.830  0.015  5.840  0.031
  5.850 -0.004  5.860 -0.036  5.870 -0.041  5.880  0.016  5.890  0.072
  5.900  0.093  5.910  0.054  5.920 -0.002  5.930 -0.034  5.940 -0.006
  5.950  0.009  5.960 -0.029  5.970 -0.075  5.980 -0.037  5.990  0.019
  6.000  0.031  6.010  0.003  6.020 -0.025  6.030 -0.035  6.040 -0.029
  6.050  0.027  6.060  0.038  6.070  0.010  6.080 -0.018  6.090 -0.023
  6.100  0.005  6.110  0.031  6.120  0.031  6.130  0.031  6.140 -0.009
  6.150 -0.039  6.160 -0.046  6.170 -0.001  6.180  0.075  6.190  0.054
  6.200 -0.030  6.210 -0.095  6.220 -0.068  6.230  0.007  6.240  0.063
  6.250  0.119  6.260  0.135  6.270  0.082  6.280 -0.020  6.290 -0.100
  6.300 -0.083  6.310 -0.057  6.320 -0.035  6.330 -0.029  6.340 -0.001
  6.350  0.045  6.360  0.099  6.370  0.111  6.380  0.069  6.390  0.033
  6.400 -0.013  6.410 -0.023  6.420 -0.051  6.430 -0.079  6.440 -0.093
  6.450 -0.052  6.460 -0.015  6.470  0.016  6.480  0.082  6.490  0.119
  6.500  0.075  6.510  0.041  6.520 -0.003  6.530 -0.049  6.540 -0.029
  6.550  0.009  6.560 -0.006  6.570 -0.034  6.580 -0.057  6.590 -0.045
  6.600  0.001  6.610  0.053  6.620  0.045  6.630  0.003  6.640 -0.033
  6.650 -0.087  6.660 -0.122  6.670 -0.072  6.680  0.013  6.690  0.104
  6.700  0.119  6.710  0.081  6.720  0.050  6.730  0.012  6.740 -0.028
  6.750 -0.057  6.760 -0.028  6.770 -0.000  6.780  0.028  6.790  0.026
  6.800 -0.021  6.810 -0.020  6.820  0.030  6.830 -0.001  6.840 -0.046
  6.850 -0.074  6.860 -0.031  6.870  0.025  6.880  0.081  6.890  0.097
  6.900  0.062  6.910 -0.022  6.920 -0.073  6.930 -0.077  6.940 -0.028
  6.950  0.014  6.960  0.031  6.970  0.031  6.980  0.022  6.990  0.009
  7.000 -0.013  7.010 -0.000  7.020  0.056  7.030  0.075  7.040  0.070
  7.050  0.023  7.060  0.009  7.070 -0.012  7.080 -0.045  7.090 -0.079
  7.100 -0.061  7.110 -0.031  7.120  0.033  7.130  0.075  7.140  0.075
  7.150 -0.013  7.160 -0.122  7.170 -0.128  7.180 -0.076  7.190  0.001
  7.200  0.058  7.210  0.095  7.220  0.068  7.230  0.002  7.240 -0.050
  7.250 -0.013  7.260  0.066  7.270  0.097  7.280  0.060  7.290  0.001
  7.300 -0.074  7.310 -0.130  7.320 -0.102  7.330 -0.024  7.340  0.021
  7.350  0.014  7.360 -0.036  7.370 -0.049  7.380 -0.020  7.390  0.028
  7.400  0.075  7.410  0.044  7.420 -0.024  7.430 -0.057  7.440 -0.042
  7.450  0.014  7.460  0.051  7.470  0.002  7.480 -0.044  7.490 -0.057
  7.500 -0.035  7.510  0.016  7.520  0.056  7.530  0.057  7.540 -0.018
  7.550 -0.057  7.560 -0.027  7.570  0.009  7.580  0.053  7.590  0.053
  7.600  0.053  7.610  0.050  7.620  0.017  7.630  0.045  7.640  0.094
  7.650  0.111  7.660  0.033  7.670 -0.079  7.680 -0.122  7.690 -0.079
  7.700 -0.008  7.710  0.029  7.720  0.031  7.730  0.031  7.740  0.031
  7.750  0.031  7.760  0.003  7.770 -0.013  7.780 -0.013  7.790 -0.013
  7.800 -0.021  7.810 -0.049  7.820 -0.035  7.830  0.042  7.840  0.087
  7.850  0.097  7.860  0.072  7.870  0.016  7.880 -0.041  7.890 -0.097
  7.900 -0.096  7.910 -0.068  7.920 -0.023  7.930  0.033  7.940  0.068
  7.950  0.027  7.960 -0.049  7.970 -0.093  7.980 -0.028  7.990  0.057
  8.000  0.075  8.010  0.041  8.020 -0.015  8.030 -0.053  8.040 -0.029
  8.050  0.018  8.060  0.031  8.070  0.052  8.080  0.048  8.090  0.009
  8.100 -0.030  8.110 -0.035  8.120 -0.027  8.130  0.001  8.140  0.009
  8.150 -0.013  8.160 -0.002  8.170  0.026  8.180  0.031  8.190  0.002
  8.200 -0.039  8.210 -0.076  8.220 -0.046  8.230  0.029  8.240  0.069
  8.250  0.053  8.260 -0.003  8.270 -0.059  8.280 -0.079  8.290 -0.073
  8.300  0.001  8.310  0.083  8.320  0.097  8.330  0.038  8.340 -0.024
  8.350 -0.035  8.360 -0.011  8.370  0.009  8.380 -0.005  8.390 -0.013
  8.400 -0.013  8.410 -0.002  8.420  0.026  8.430  0.052  8.440  0.024
  8.450 -0.004  8.460 -0.032  8.470 -0.002  8.480  0.082  8.490  0.119
  8.500  0.097  8.510  0.069  8.520  0.041  8.530 -0.024  8.540 -0.081
  8.550 -0.092  8.560 -0.034  8.570  0.030  8.580  0.031  8.590  0.020
  8.600 -0.026  8.610 -0.058  8.620 -0.079  8.630 -0.079  8.640 -0.079
  8.650 -0.021  8.660  0.052  8.670  0.075  8.680  0.029  8.690 -0.042
  8.700 -0.057  8.710 -0.057  8.720 -0.053  8.730 -0.015  8.740  0.025
  8.750  0.097  8.760  0.113  8.770  0.048  8.780 -0.009  8.790 -0.007
  8.800  0.040  8.810  0.053  8.820  0.032  8.830 -0.018  8.840 -0.035
  8.850 -0.035  8.860 -0.053  8.870 -0.005  8.880  0.038  8.890  0.053
  8.900  0.031  8.910  0.042  8.920  0.070  8.930  0.074  8.940  0.039
  8.950 -0.004  8.960 -0.032  8.970 -0.086  8.980 -0.132  8.990 -0.129
  9.000 -0.079  9.010 -0.000  9.020  0.056  9.030  0.075  9.040  0.070
  9.050  0.031  9.060  0.016  9.070 -0.033  9.080 -0.040  9.090 -0.045
  9.100 -0.035  9.110 -0.082  9.120 -0.130  9.130 -0.116  9.140 -0.040
  9.150 -0.017  9.160 -0.045  9.170 -0.073  9.180 -0.056  9.190 -0.035
  9.200 -0.035  9.210 -0.035  9.220 -0.006  9.230  0.022  9.240 -0.006
  9.250 -0.057  9.260 -0.057  9.270 -0.057  9.280 -0.057  9.290 -0.054
  9.300 -0.035  9.310 -0.020  9.320 -0.013  9.330 -0.018  9.340 -0.069
  9.350 -0.118  9.360 -0.122  9.370 -0.115  9.380 -0.100  9.390 -0.100
  9.400 -0.096  9.410 -0.057  9.420 -0.018  9.430 -0.012  9.440  0.002
  9.450 -0.013  9.460 -0.032  9.470 -0.057  9.480 -0.037  9.490  0.019
  9.500  0.097  9.510  0.154  9.520  0.198  9.530  0.189  9.540  0.161
  9.550  0.132  9.560  0.119  9.570  0.161  9.580  0.158  9.590  0.118
  9.600  0.097  9.610  0.077  9.620  0.097  9.630  0.083  9.640  0.075
  9.650  0.075  9.660  0.065  9.670  0.053  9.680  0.077  9.690  0.119
  9.700  0.119  9.710  0.100  9.720  0.050  9.730  0.022  9.740  0.009
  9.750  0.009  9.760  0.053  9.770  0.041  9.780  0.013  9.790 -0.013
  9.800 -0.013  9.810 -0.013  9.820 -0.013  9.830 -0.018  9.840 -0.046
  9.850 -0.057  9.860 -0.057  9.870 -0.057  9.880 -0.057  9.890 -0.077
  9.900 -0.122  9.910 -0.122  9.920 -0.089  9.930 -0.033  9.940  0.023
  9.950  0.093  9.960  0.158  9.970  0.160  9.980  0.122  9.990  0.050
 10.000 -0.057 10.010 -0.157 10.020 -0.176 10.030 -0.148 10.040 -0.120
 10.050 -0.083 10.060 -0.027 10.070  0.051 10.080  0.048 10.090  0.009
 10.100 -0.048 10.110 -0.104 10.120 -0.152 10.130 -0.180 10.140 -0.188
 10.150 -0.136 10.160 -0.090 10.170 -0.062 10.180 -0.057 10.190 -0.042
 10.200  0.014 10.210  0.089 10.220  0.170 10.230  0.207 10.240  0.191
 10.250  0.141 10.260  0.113 10.270  0.073 10.280  0.016 10.290 -0.018
 10.300 -0.048 10.310 -0.020 10.320  0.009 10.330  0.004 10.340 -0.001
 10.350  0.045 10.360  0.101 10.370  0.149 10.380  0.163 10.390  0.183
 10.400  0.207 10.410  0.207 10.420  0.174 10.430  0.119 10.440  0.112
 10.450  0.097 10.460  0.097 10.470  0.053 10.480  0.024 10.490 -0.060
 10.500 -0.144 10.510 -0.188 10.520 -0.151 10.530 -0.030 10.540  0.130
 10.550  0.198 10.560  0.125 10.570  0.013 10.580 -0.111 10.590 -0.167
 10.600 -0.241 10.610 -0.280 10.620 -0.328 10.630 -0.314 10.640 -0.238
 10.650 -0.188 10.660 -0.188 10.670 -0.188 10.680 -0.142 10.690 -0.064
 10.700 -0.035 10.710 -0.054 10.720 -0.079 10.730 -0.069 10.740 -0.009
 10.750  0.053 10.760  0.075 10.770  0.088 10.780  0.116 10.790  0.114
 10.800  0.067 10.810  0.038 10.820  0.010 10.830  0.074 10.840  0.187
 10.850  0.247 10.860  0.204 10.870  0.147 10.880  0.105 10.890  0.097
 10.900  0.084 10.910 -0.000 10.920 -0.085 10.930 -0.120 10.940 -0.028
 10.950  0.071 10.960  0.136 10.970  0.109 10.980  0.034 10.990  0.009
 11.000  0.031 11.010  0.103 11.020  0.119 11.030  0.101 11.040  0.021
 11.050 -0.092 11.060 -0.159 11.070 -0.145 11.080 -0.052 11.090  0.043
 11.100  0.018 11.110 -0.084 11.120 -0.144 11.130 -0.116 11.140 -0.040
 11.150  0.014 11.160  0.052 11.170  0.142 11.180  0.276 11.190  0.360
 11.200  0.405 11.210  0.386 11.220  0.300 11.230  0.149 11.240 -0.004
 11.250 -0.122 11.260 -0.144 11.270 -0.132 11.280 -0.104 11.290 -0.076
 11.300 -0.065 11.310 -0.093 11.320 -0.143 11.330 -0.172 11.340 -0.200
 11.350 -0.228 11.360 -0.304 11.370 -0.372 11.380 -0.358 11.390 -0.241
 11.400 -0.079 11.410  0.073 11.420  0.191 11.430  0.250 11.440  0.215
 11.450  0.146 11.460  0.042 11.470 -0.122 11.480 -0.281 11.490 -0.358
 11.500 -0.364 11.510 -0.274 11.520 -0.161 11.530 -0.049 11.540  0.015
 11.550  0.071 11.560  0.127 11.570  0.162 11.580  0.109 11.590  0.052
 11.600 -0.004 11.610 -0.082 11.620 -0.122 11.630 -0.066 11.640  0.107
 11.650  0.273 11.660  0.382 11.670  0.422 11.680  0.425 11.690  0.362
 11.700  0.278 11.710  0.174 11.720  0.043 11.730 -0.032 11.740 -0.072
 11.750 -0.057 11.760 -0.016 11.770  0.081 11.780  0.175 11.790  0.205
 11.800  0.168 11.810  0.111 11.820  0.013 11.830 -0.007 11.840  0.021
 11.850  0.031 11.860 -0.014 11.870 -0.035 11.880 -0.020 11.890  0.008
 11.900  0.014 11.910  0.031 11.920  0.048 11.930  0.051 11.940 -0.048
 11.950 -0.175 11.960 -0.230 11.970 -0.225 11.980 -0.179 11.990 -0.135
 12.000 -0.100 12.010 -0.129 12.020 -0.169 12.030 -0.188 12.040 -0.159
 12.050 -0.092 12.060 -0.079 12.070 -0.163 12.080 -0.248 12.090 -0.333
 12.100 -0.382 12.110 -0.311 12.120 -0.163 12.130 -0.008 12.140  0.072
 12.150  0.080 12.160  0.108 12.170  0.153 12.180  0.161 12.190  0.084
 12.200 -0.030 12.210 -0.076 12.220 -0.020 12.230  0.092 12.240  0.189
 12.250  0.229 12.260  0.201 12.270  0.173 12.280  0.145 12.290  0.089
 12.300 -0.004 12.310 -0.161 12.320 -0.358 12.330 -0.512 12.340 -0.539
 12.350 -0.483 12.360 -0.330 12.370 -0.141 12.380  0.014 12.390  0.114
 12.400  0.194 12.410  0.250 12.420  0.290 12.430  0.273 12.440  0.273
 12.450  0.273 12.460  0.254 12.470  0.197 12.480  0.103 12.490 -0.026
 12.500 -0.144 12.510 -0.223 12.520 -0.254 12.530 -0.217 12.540 -0.112
 12.550 -0.017 12.560  0.039 12.570  0.096 12.580  0.114 12.590  0.109
 12.600  0.137 12.610  0.141 12.620  0.133 12.630  0.119 12.640  0.140
 12.650  0.159 12.660  0.120 12.670  0.064 12.680 -0.060 12.690 -0.159
 12.700 -0.175 12.710 -0.108 12.720  0.031 12.730  0.180 12.740  0.245
 12.750  0.229 12.760  0.123 12.770  0.075 12.780  0.131 12.790  0.215
 12.800  0.282 12.810  0.265 12.820  0.167 12.830  0.054 12.840 -0.058
 12.850 -0.188 12.860 -0.256 12.870 -0.276 12.880 -0.276 12.890 -0.256
 12.900 -0.193 12.910 -0.080 12.920 -0.001 12.930  0.054 12.940  0.075
 12.950  0.075 12.960  0.056 12.970 -0.005 12.980 -0.117 12.990 -0.261
 13.000 -0.408 13.010 -0.446 13.020 -0.381 13.030 -0.195 13.040  0.058
 13.050  0.321 13.060  0.487 13.070  0.473 13.080  0.297 13.090  0.072
 13.100 -0.118 13.110 -0.187 13.120 -0.159 13.130 -0.144 13.140 -0.185
 13.150 -0.224 13.160 -0.136 13.170  0.055 13.180  0.280 13.190  0.477
 13.200  0.550 13.210  0.501 13.220  0.391 13.230  0.288 13.240  0.204
 13.250  0.141 13.260  0.079 13.270  0.007 13.280 -0.031 13.290  0.017
 13.300  0.102 13.310  0.126 13.320  0.035 13.330 -0.132 13.340 -0.278
 13.350 -0.338 13.360 -0.293 13.370 -0.217 13.380 -0.174 13.390 -0.166
 13.400 -0.158 13.410 -0.122 13.420 -0.156 13.430 -0.234 13.440 -0.290
 13.450 -0.294 13.460 -0.257 13.470 -0.258 13.480 -0.296 13.490 -0.336
 13.500 -0.342 13.510 -0.302 13.520 -0.217 13.530 -0.151 13.540 -0.147
 13.550 -0.166 13.560 -0.166 13.570 -0.145 13.580 -0.085 13.590 -0.000
 13.600  0.084 13.610  0.141 13.620  0.133 13.630  0.105 13.640  0.097
 13.650  0.106 13.660  0.173 13.670  0.241 13.680  0.296 13.690  0.331
 13.700  0.348 13.710  0.300 13.720  0.244 13.730  0.178 13.740  0.094
 13.750 -0.013 13.760 -0.085 13.770 -0.076 13.780 -0.020 13.790  0.056
 13.800  0.058 13.810 -0.043 13.820 -0.226 13.830 -0.380 13.840 -0.419
 13.850 -0.338 13.860 -0.178 13.870 -0.025 13.880  0.074 13.890  0.158
 13.900  0.256 13.910  0.435 13.920  0.632 13.930  0.781 13.940  0.838
 13.950  0.730 13.960  0.475 13.970  0.077 13.980 -0.222 13.990 -0.415
 14.000 -0.518 14.010 -0.559 14.020 -0.631 14.030 -0.631 14.040 -0.450
 14.050 -0.171 14.060  0.137 14.070  0.376 14.080  0.471 14.090  0.448
 14.100  0.392 14.110  0.380 14.120  0.323 14.130  0.267 14.140  0.211
 14.150  0.159 14.160  0.162 14.170  0.252 14.180  0.341 14.190  0.369
 14.200  0.260 14.210  0.111 14.220 -0.020 14.230 -0.066 14.240 -0.110
 14.250 -0.188 14.260 -0.341 14.270 -0.526 14.280 -0.639 14.290 -0.595
 14.300 -0.457 14.310 -0.215 14.320  0.088 14.330  0.349 14.340  0.472
 14.350  0.475 14.360  0.400 14.370  0.315 14.380  0.231 14.390  0.147
 14.400  0.027 14.410 -0.142 14.420 -0.311 14.430 -0.406 14.440 -0.321
 14.450 -0.276 14.460 -0.334 14.470 -0.419 14.480 -0.464 14.490 -0.373
 14.500 -0.188 14.510 -0.016 14.520  0.031 14.530 -0.006 14.540 -0.005
 14.550  0.089 14.560  0.216 14.570  0.336 14.580  0.340 14.590  0.193
 14.600 -0.074 14.610 -0.305 14.620 -0.386 14.630 -0.316 14.640 -0.135
 14.650  0.075 14.660  0.163 14.670  0.063 14.680 -0.151 14.690 -0.333
 14.700 -0.421 14.710 -0.411 14.720 -0.306 14.730 -0.184 14.740 -0.043
 14.750  0.119 14.760  0.260 14.770  0.376 14.780  0.460 14.790  0.441
 14.800  0.321 14.810  0.110 14.820 -0.158 14.830 -0.363 14.840 -0.442
 14.850 -0.399 14.860 -0.264 14.870 -0.075 14.880  0.094 14.890  0.263
 14.900  0.365 14.910  0.372 14.920  0.311 14.930  0.204 14.940  0.105
 14.950  0.062 14.960  0.015 14.970 -0.067 14.980 -0.151 14.990 -0.236
 15.000 -0.320 15.010 -0.268 15.020 -0.090 15.030  0.117 15.040  0.256
 15.050  0.304 15.060  0.347 15.070  0.361 15.080  0.345 15.090  0.249
 15.100  0.119 15.110  0.001 15.120 -0.124 15.130 -0.195 15.140 -0.231
 15.150 -0.237 15.160 -0.265 15.170 -0.293 15.180 -0.274 15.190 -0.175
 15.200 -0.035 15.210  0.067 15.220  0.123 15.230  0.161 15.240  0.233
 15.250  0.317 15.260  0.367 15.270  0.383 15.280  0.401 15.290  0.378
 15.300  0.295 15.310  0.110 15.320 -0.115 15.330 -0.357 15.340 -0.508
 15.350 -0.540 15.360 -0.533 15.370 -0.413 15.380 -0.244 15.390 -0.027
 15.400  0.176 15.410  0.380 15.420  0.449 15.430  0.356 15.440  0.187
 15.450  0.045 15.460 -0.029 15.470 -0.031 15.480 -0.032 15.490 -0.136
 15.500 -0.298 15.510 -0.408 15.520 -0.359 15.530 -0.191 15.540 -0.027
 15.550  0.049 15.560  0.075 15.570  0.096 15.580  0.103 15.590  0.108
 15.600  0.062 15.610 -0.040 15.620 -0.100 15.630 -0.072 15.640 -0.016
 15.650  0.014 15.660  0.031 15.670  0.015 15.680 -0.037 15.690 -0.093
 15.700 -0.039 15.710  0.084 15.720  0.204 15.730  0.147 15.740  0.002
 15.750 -0.144 15.760 -0.176 15.770 -0.058 15.780  0.176 15.790  0.421
 15.800  0.537 15.810  0.492 15.820  0.387 15.830  0.198 15.840  0.017
 15.850 -0.144 15.860 -0.234 15.870 -0.254 15.880 -0.240 15.890 -0.192
 15.900 -0.158 15.910 -0.274 15.920 -0.426 15.930 -0.516 15.940 -0.439
 15.950 -0.246 15.960 -0.031 15.970  0.152 15.980  0.207 15.990  0.160
 16.000  0.053 16.010 -0.075 16.020 -0.122 16.030 -0.104 16.040 -0.079
 16.050 -0.079 16.060 -0.079 16.070 -0.057 16.080 -0.007 16.090  0.009
 16.100  0.027 16.110  0.079 16.120  0.127 16.130  0.155 16.140  0.143
 16.150  0.058 16.160 -0.044 16.170 -0.145 16.180 -0.210 16.190 -0.210
 16.200 -0.184 16.210 -0.128 16.220 -0.017 16.230  0.124 16.240  0.185
 16.250  0.163 16.260  0.129 16.270  0.097 16.280  0.116 16.290  0.198
 16.300  0.330 16.310  0.428 16.320  0.470 16.330  0.417 16.340  0.226
 16.350  0.001 16.360 -0.197 16.370 -0.322 16.380 -0.378 16.390 -0.366
 16.400 -0.333 16.410 -0.256 16.420 -0.144 16.430 -0.031 16.440  0.081
 16.450  0.194 16.460  0.229 16.470  0.146 16.480  0.005 16.490 -0.120
 16.500 -0.188 16.510 -0.176 16.520 -0.108 16.530 -0.005 16.540  0.132
 16.550  0.256 16.560  0.295 16.570  0.274 16.580  0.191 16.590  0.107
 16.600  0.058 16.610  0.009 16.620  0.001 16.630 -0.027 16.640 -0.075
 16.650 -0.127 16.660 -0.155 16.670 -0.166 16.680 -0.165 16.690 -0.101
 16.700 -0.017 16.710  0.048 16.720  0.075 16.730  0.085 16.740  0.113
 16.750  0.119 16.760  0.141 16.770  0.154 16.780  0.200 16.790  0.254
 16.800  0.256 16.810  0.199 16.820  0.122 16.830  0.070 16.840  0.031
 16.850 -0.026 16.860 -0.131 16.870 -0.264 16.880 -0.334 16.890 -0.322
 16.900 -0.281 16.910 -0.158 16.920  0.016 16.930  0.143 16.940  0.185
 16.950  0.159 16.960  0.083 16.970 -0.020 16.980 -0.057 16.990 -0.057
 17.000 -0.057 17.010 -0.069 17.020 -0.113 17.030 -0.122 17.040 -0.093
 17.050 -0.008 17.060  0.046 17.070  0.011 17.080 -0.035 17.090 -0.012
 17.100  0.062 17.110  0.118 17.120  0.089 17.130  0.047 17.140 -0.070
 17.150 -0.202 17.160 -0.265 17.170 -0.226 17.180 -0.095 17.190  0.060
 17.200  0.119 17.210  0.061 17.220 -0.023 17.230 -0.088 17.240 -0.085
 17.250 -0.035 17.260 -0.019 17.270 -0.059 17.280 -0.115 17.290 -0.120
 17.300 -0.083 17.310 -0.042 17.320  0.008 17.330  0.069 17.340  0.154
 17.350  0.203 17.360  0.204 17.370  0.147 17.380  0.091 17.390  0.015
 17.400 -0.087 17.410 -0.144 17.420 -0.166 17.430 -0.097 17.440  0.023
 17.450  0.137 17.460  0.202 17.470  0.182 17.480  0.134 17.490  0.050
 17.500 -0.013 17.510 -0.006 17.520  0.022 17.530  0.031 17.540  0.004
 17.550 -0.052 17.560 -0.079 17.570 -0.079 17.580 -0.024 17.590  0.044
 17.600  0.093 17.610  0.118 17.620  0.089 17.630  0.047 17.640 -0.009
 17.650 -0.030 17.660  0.019 17.670  0.120 17.680  0.183 17.690  0.106
 17.700 -0.061 17.710 -0.200 17.720 -0.225 17.730 -0.179 17.740 -0.182
 17.750 -0.166 17.760 -0.098 17.770  0.002 17.780  0.087 17.790  0.114
 17.800  0.049 17.810 -0.035 17.820 -0.120 17.830 -0.107 17.840 -0.011
 17.850  0.102 17.860  0.140 17.870  0.103 17.880  0.047 17.890  0.031
 17.900  0.027 17.910 -0.001 17.920 -0.013 17.930  0.034 17.940  0.125
 17.950  0.198 17.960  0.149 17.970  0.046 17.980 -0.010 17.990 -0.035
 18.000  0.031 18.010  0.047 18.020 -0.018 18.030 -0.130 18.040 -0.238
 18.050 -0.259 18.060 -0.173 18.070 -0.039 18.080  0.042 18.090  0.087
 18.100  0.062 18.110  0.006 18.120 -0.042 18.130 -0.071 18.140 -0.038
 18.150  0.045 18.160  0.129 18.170  0.213 18.180  0.250 18.190  0.215
 18.200  0.119 18.210 -0.002 18.220 -0.108 18.230 -0.154 18.240 -0.166
 18.250 -0.122 18.260 -0.032 18.270  0.081 18.280  0.175 18.290  0.224
 18.300  0.141 18.310  0.016 18.320 -0.055 18.330 -0.079 18.340 -0.067
 18.350 -0.039 18.360 -0.036 18.370 -0.057 18.380 -0.042 18.390  0.006
 18.400  0.040 18.410  0.107 18.420  0.158 18.430  0.206 18.440  0.171
 18.450  0.089 18.460 -0.043 18.470 -0.151 18.480 -0.179 18.490 -0.135
 18.500 -0.079 18.510 -0.016 18.520  0.044 18.530  0.072 18.540  0.051
 18.550  0.023 18.560 -0.006 18.570  0.009 18.580 -0.023 18.590 -0.102
 18.600 -0.232 18.610 -0.298 18.620 -0.282 18.630 -0.198 18.640 -0.086
 18.650  0.040 18.660  0.086 18.670  0.081 18.680  0.052 18.690  0.024
 18.700 -0.017 18.710 -0.073 18.720 -0.075 18.730 -0.037 18.740  0.003
 18.750  0.009 18.760  0.031 18.770  0.044 18.780  0.053 18.790  0.031
 18.800  0.031 18.810  0.046 18.820  0.053 18.830  0.043 18.840 -0.025
 18.850 -0.144 18.860 -0.232 18.870 -0.209 18.880 -0.096 18.890  0.065
 18.900  0.141 18.910  0.120 18.920  0.081 18.930  0.100 18.940  0.170
 18.950  0.185 18.960  0.185 18.970  0.146 18.980  0.015 18.990 -0.114
 19.000 -0.232 19.010 -0.292 19.020 -0.252 19.030 -0.140 19.040 -0.029
 19.050  0.001 19.060 -0.013 19.070 -0.013 19.080  0.025 19.090  0.087
 19.100  0.097 19.110  0.074 19.120  0.038 19.130 -0.005 19.140 -0.013
 19.150 -0.008 19.160  0.009 19.170  0.009 19.180  0.031 19.190  0.024
 19.200 -0.004 19.210 -0.051 19.220 -0.079 19.230 -0.079 19.240 -0.063
 19.250 -0.013 19.260  0.044 19.270  0.088 19.280  0.134 19.290  0.166
 19.300  0.176 19.310  0.133 19.320  0.056 19.330 -0.018 19.340 -0.046
 19.350 -0.057 19.360 -0.011 19.370  0.025 19.380  0.067 19.390  0.096
 19.400  0.102 19.410  0.151 19.420  0.252 19.430  0.314 19.440  0.209
 19.450  0.040 19.460 -0.109 19.470 -0.188 19.480 -0.169 19.490 -0.097
 19.500 -0.013 19.510  0.038 19.520  0.053 19.530  0.035 19.540 -0.037
 19.550 -0.048 19.560 -0.005 19.570  0.052 19.580  0.048 19.590  0.009
 19.600 -0.083 19.610 -0.168 19.620 -0.188 19.630 -0.132 19.640 -0.020
 19.650  0.036 19.660  0.053 19.670  0.037 19.680  0.055 19.690  0.097
 19.700  0.058 19.710 -0.065 19.720 -0.173 19.730 -0.201 19.740 -0.141
 19.750 -0.013 19.760  0.025 19.770 -0.028 19.780 -0.130 19.790 -0.161
 19.800 -0.079 19.810  0.047 19.820  0.160 19.830  0.234 19.840  0.228
 19.850  0.137 19.860  0.024 19.870 -0.080 19.880 -0.137 19.890 -0.124
 19.900 -0.043 19.910  0.031 19.920  0.037 19.930 -0.013 19.940  0.001
 19.950  0.045 19.960  0.034 19.970  0.002 19.980 -0.044 19.990 -0.072
 20.000 -0.100 20.010 -0.066 20.020 -0.010 20.030  0.028 20.040  0.004
 20.050 -0.052 20.060 -0.108 20.070 -0.122 20.080 -0.057 20.090  0.044
 20.100  0.075 20.110  0.050 20.120 -0.022 20.130 -0.121 20.140 -0.144
 20.150 -0.065 20.160  0.030 20.170  0.125 20.180  0.185 20.190  0.171
 20.200  0.128 20.210  0.081 20.220  0.101 20.230  0.139 20.240  0.179
 20.250  0.163 20.260  0.085 20.270  0.053 20.280  0.072 20.290  0.073
 20.300  0.045 20.310  0.016 20.320  0.009 20.330  0.009 20.340 -0.002
 20.350 -0.065 20.360 -0.126 20.370 -0.166 20.380 -0.124 20.390 -0.060
 20.400 -0.013 20.410 -0.013 20.420 -0.013 20.430 -0.013 20.440 -0.042
 20.450 -0.070 20.460 -0.079 20.470 -0.104 20.480 -0.142 20.490 -0.198
 20.500 -0.188 20.510 -0.120 20.520  0.017 20.530  0.149 20.540  0.227
 20.550  0.181 20.560  0.081 20.570 -0.031 20.580 -0.116 20.590 -0.166
 20.600 -0.166 20.610 -0.166 20.620 -0.159 20.630 -0.130 20.640 -0.102
 20.650 -0.087 20.660 -0.003 20.670  0.115 20.680  0.207 20.690  0.207
 20.700  0.194 20.710  0.166 20.720  0.105 20.730  0.002 20.740 -0.066
 20.750 -0.079 20.760 -0.022 20.770  0.046 20.780  0.112 20.790  0.095
 20.800  0.049 20.810 -0.035 20.820 -0.057 20.830 -0.002 20.840  0.054
 20.850  0.075 20.860  0.030 20.870 -0.006 20.880 -0.020 20.890  0.028
 20.900  0.128 20.910  0.174 20.920  0.185 20.930  0.118 20.940  0.075
 20.950  0.089 20.960  0.117 20.970  0.112 20.980  0.046 20.990 -0.022
 21.000 -0.057 21.010 -0.079 21.020 -0.066 21.030 -0.057 21.040 -0.037
 21.050 -0.057 21.060 -0.071 21.070 -0.079 21.080 -0.029 21.090  0.022
 21.100  0.089 21.110  0.118 21.120  0.081 21.130  0.039 21.140  0.011
 21.150  0.031 21.160  0.010 21.170 -0.046 21.180 -0.100 21.190 -0.100
 21.200 -0.100 21.210 -0.081 21.220 -0.028 21.230  0.038 21.240  0.091
 21.250  0.075 21.260  0.041 21.270 -0.003 21.280 -0.049 21.290 -0.103
 21.300 -0.114 21.310 -0.086 21.320 -0.100 21.330 -0.073 21.340 -0.045
 21.350  0.001 21.360  0.053 21.370  0.045 21.380  0.003 21.390 -0.053
 21.400 -0.109 21.410 -0.144 21.420 -0.111 21.430 -0.033 21.440  0.023
 21.450  0.040 21.460  0.012 21.470 -0.006 21.480  0.060 21.490  0.113
 21.500  0.119 21.510  0.063 21.520  0.007 21.530 -0.031 21.540 -0.037
 21.550 -0.065 21.560 -0.108 21.570 -0.165 21.580 -0.161 21.590 -0.133
 21.600 -0.105 21.610 -0.053 21.620  0.003 21.630  0.060 21.640  0.136
 21.650  0.163 21.660  0.153 21.670  0.108 21.680  0.031 21.690 -0.005
 21.700 -0.048 21.710 -0.057 21.720 -0.075 21.730 -0.047 21.740 -0.035
 21.750 -0.013 21.760 -0.028 21.770  0.012 21.780  0.068 21.790  0.097
 21.800  0.080 21.810  0.009 21.820 -0.055 21.830 -0.067 21.840 -0.123
 21.850 -0.162 21.860 -0.188 21.870 -0.180 21.880 -0.138 21.890 -0.082
 21.900 -0.008 21.910  0.009 21.920 -0.007 21.930  0.032 21.940  0.060
 21.950  0.089 21.960  0.097 21.970  0.068 21.980  0.002 21.990 -0.082
 22.000 -0.100 22.010 -0.038 22.020  0.046 22.030  0.112 22.040  0.119
 22.050  0.111 22.060  0.082 22.070  0.054 22.080  0.037 22.090  0.065
 22.100  0.075 22.110  0.077 22.120  0.089 22.130  0.061 22.140  0.053
 22.150  0.053 22.160  0.043 22.170  0.031 22.180  0.054 22.190  0.089
 22.200  0.132 22.210  0.122 22.220  0.090 22.230  0.034 22.240 -0.022
 22.250 -0.057 22.260 -0.057 22.270 -0.057 22.280 -0.038 22.290 -0.010
 22.300  0.009 22.310  0.024 22.320  0.095 22.330  0.114 22.340  0.086
 22.350  0.040 22.360 -0.014 22.370 -0.050 22.380 -0.093 22.390 -0.121
 22.400 -0.096 22.410 -0.089 22.420 -0.084 22.430 -0.034 22.440 -0.020
 22.450 -0.048 22.460 -0.095 22.470 -0.148 22.480 -0.157 22.490 -0.129
 22.500 -0.057 22.510  0.056 22.520  0.132 22.530  0.123 22.540  0.053
 22.550  0.062 22.560  0.090 22.570  0.097 22.580  0.043 22.590 -0.025
 22.600 -0.092 22.610 -0.097 22.620 -0.049 22.630 -0.020 22.640 -0.013
 22.650 -0.013 22.660 -0.023 22.670 -0.051 22.680 -0.079 22.690 -0.079
 22.700 -0.052 22.710 -0.035 22.720 -0.013 22.730 -0.013 22.740  0.003
 22.750  0.053 22.760  0.069 22.770  0.053 22.780  0.053 22.790  0.051
 22.800  0.023 22.810  0.009 22.820  0.009 22.830  0.031 22.840  0.031
 22.850  0.014 22.860 -0.084 22.870 -0.160 22.880 -0.202 22.890 -0.210
 22.900 -0.153 22.910 -0.069 22.920 -0.018 22.930  0.009 22.940  0.009
 22.950  0.023 22.960  0.070 22.970  0.101 22.980  0.129 22.990  0.125
 23.000  0.097 23.010  0.060 23.020  0.075 23.030  0.075 23.040  0.048
 23.050  0.001 23.060 -0.028 23.070 -0.013 23.080  0.042 23.090  0.087
 23.100  0.097 23.110  0.072 23.120  0.023 23.130  0.023 23.140  0.052
 23.150  0.045 23.160 -0.001 23.170 -0.029 23.180 -0.011 23.190  0.031
 23.200  0.018 23.210  0.009 23.220 -0.038 23.230 -0.047 23.240 -0.003
 23.250  0.031 23.260  0.053 23.270  0.041 23.280  0.013 23.290  0.004
 23.300 -0.043 23.310 -0.071 23.320 -0.100 23.330 -0.090 23.340 -0.034
 23.350 -0.013 23.360  0.008 23.370 -0.013 23.380 -0.027 23.390 -0.035
 23.400 -0.004 23.410  0.063 23.420  0.131 23.430  0.163 23.440  0.142
 23.450  0.058 23.460 -0.007 23.470 -0.060 23.480 -0.088 23.490 -0.116
 23.500 -0.122 23.510 -0.094 23.520 -0.054 23.530  0.002 23.540  0.061
 23.550  0.146 23.560  0.185 23.570  0.185 23.580  0.098 23.590 -0.003
 23.600 -0.070 23.610 -0.079 23.620 -0.086 23.630 -0.115 23.640 -0.143
 23.650 -0.140 23.660 -0.101 23.670 -0.045 23.680 -0.011 23.690  0.038
 23.700  0.067 23.710  0.056 23.720  0.002 23.730 -0.054 23.740 -0.110
 23.750 -0.166 23.760 -0.144 23.770 -0.132 23.780 -0.104 23.790 -0.029
 23.800  0.027 23.810  0.083 23.820  0.097 23.830  0.070 23.840  0.053
 23.850  0.036 23.860  0.055 23.870  0.075 23.880  0.089 23.890  0.158
 23.900  0.212 23.910  0.219 23.920  0.191 23.930  0.095 23.940  0.017
 23.950 -0.013 23.960 -0.013 23.970  0.009 23.980 -0.000 23.990 -0.044
 24.000 -0.100 24.010 -0.144 24.020 -0.120 24.030 -0.045 24.040  0.034
 24.050  0.053 24.060  0.023 24.070 -0.033 24.080 -0.051 24.090 -0.023
 24.100  0.005 24.110  0.006 24.120 -0.050 24.130 -0.107 24.140 -0.143
 24.150 -0.136 24.160 -0.069 24.170  0.032 24.180  0.120 24.190  0.127
 24.200  0.058 24.210 -0.027 24.220 -0.079 24.230 -0.079 24.240 -0.079
 24.250 -0.035 24.260 -0.063 24.270 -0.091 24.280 -0.100 24.290 -0.076
 24.300 -0.057 24.310 -0.042 24.320 -0.035 24.330 -0.040 24.340 -0.057
 24.350 -0.039 24.360  0.035 24.370  0.083 24.380  0.125 24.390  0.161
 24.400  0.159 24.410  0.120 24.420  0.064 24.430  0.052 24.440  0.031
 24.450  0.031 24.460  0.012 24.470  0.009 24.480  0.019 24.490  0.047
 24.500  0.053 24.510  0.047 24.520  0.019 24.530  0.009 24.540  0.012
 24.550  0.040 24.560  0.068 24.570  0.075 24.580  0.065 24.590 -0.003
 24.600 -0.070 24.610 -0.079 24.620 -0.071 24.630 -0.042 24.640  0.006
 24.650  0.053 24.660  0.053 24.670  0.037 24.680  0.009 24.690 -0.013
 24.700  0.001 24.710  0.048 24.720  0.072 24.730  0.034 24.740 -0.022
 24.750 -0.100 24.760 -0.122 24.770 -0.135 24.780 -0.163 24.790 -0.164
 24.800 -0.136 24.810 -0.108 24.820 -0.079 24.830 -0.051 24.840 -0.012
 24.850  0.009 24.860  0.013 24.870  0.053 24.880  0.067 24.890  0.035
 24.900  0.005 24.910 -0.023 24.920 -0.035 24.930 -0.036 24.940 -0.086
 24.950 -0.114 24.960 -0.103 24.970 -0.071 24.980 -0.015 24.990  0.025
 25.000  0.031 25.010  0.038 25.020  0.066 25.030  0.094 25.040  0.100
 25.050  0.128 25.060  0.141 25.070  0.078 25.080 -0.006 25.090 -0.068
 25.100 -0.043 25.110  0.015 25.120  0.091 25.130  0.133 25.140  0.081
 25.150  0.031 25.160  0.031 25.170  0.031 25.180  0.009 25.190  0.009
 25.200  0.009 25.210 -0.010 25.220 -0.038 25.230 -0.066 25.240 -0.079
 25.250 -0.057 25.260 -0.000 25.270  0.056 25.280  0.075 25.290  0.051
 25.300  0.023 25.310  0.009 25.320  0.009 25.330  0.015 25.340  0.043
 25.350  0.053 25.360  0.006 25.370 -0.050 25.380 -0.079 25.390 -0.038
 25.400 -0.013 25.410 -0.023 25.420 -0.051 25.430 -0.057 25.440 -0.079
 25.450 -0.052 25.460 -0.015 25.470  0.009 25.480 -0.000 25.490 -0.028
 25.500 -0.079 25.510 -0.107 25.520 -0.122 25.530 -0.104 25.540 -0.095
 25.550 -0.057 25.560 -0.027 25.570  0.051 25.580  0.075 25.590  0.052
 25.600  0.014 25.610  0.009 25.620  0.001 25.630 -0.013 25.640 -0.033
 25.650  0.018 25.660  0.064 25.670  0.092 25.680  0.096 25.690  0.075
 25.700  0.075 25.710  0.075 25.720  0.053 25.730  0.034 25.740  0.009
 25.750  0.009 25.760  0.038 25.770  0.041 25.780  0.013 25.790 -0.015
 25.800 -0.026 25.810 -0.013 25.820 -0.013 25.830 -0.035 25.840 -0.023
 25.850  0.023 25.860  0.077 25.870  0.089 25.880  0.047 25.890 -0.029
 25.900 -0.087 25.910 -0.122 25.920 -0.106 25.930 -0.077 25.940 -0.028
 25.950  0.001 25.960  0.029 25.970  0.053 25.980  0.053 25.990  0.022
 26.000  0.009 26.010 -0.041 26.020 -0.069 26.030 -0.060 26.040 -0.010
 26.050  0.027 26.060  0.038 26.070  0.010 26.080 -0.013 26.090 -0.001
 26.100  0.045 26.110  0.123 26.120  0.155 26.130  0.099 26.140 -0.026
 26.150 -0.105 26.160 -0.112 26.170 -0.067 26.180 -0.011 26.190  0.038
 26.200  0.053 26.210  0.053 26.220  0.024 26.230 -0.032 26.240 -0.072
 26.250 -0.100 26.260 -0.066 26.270 -0.022 26.280 -0.013 26.290 -0.010
 26.300  0.018 26.310  0.031 26.320  0.031 26.330  0.015 26.340  0.031
 26.350  0.031 26.360 -0.014 26.370 -0.042 26.380 -0.028 26.390  0.008
 26.400  0.027 26.410  0.009 26.420  0.026 26.430  0.009 26.440  0.016
 26.450  0.045 26.460  0.073 26.470  0.024 26.480 -0.042 26.490 -0.110
 26.500 -0.122 26.510 -0.060 26.520  0.012 26.530  0.031 26.540 -0.018
 26.550 -0.057 26.560 -0.042 26.570 -0.013 26.580  0.031 26.590  0.031
 26.600  0.031 26.610  0.008 26.620 -0.013 26.630  0.001 26.640  0.030
 26.650  0.053 26.660  0.064 26.670  0.059 26.680  0.031 26.690  0.002
 26.700 -0.013 26.710 -0.032 26.720 -0.060 26.730 -0.079 26.740 -0.079
 26.750 -0.100 26.760 -0.094 26.770 -0.054 26.780 -0.016 26.790  0.031
 26.800  0.023 26.810  0.009 26.820  0.031 26.830  0.015 26.840  0.031
 26.850  0.049 26.860  0.053 26.870  0.061 26.880  0.075 26.890  0.075
 26.900  0.045 26.910 -0.001 26.920 -0.013 26.930  0.010 26.940  0.031
 26.950  0.031 26.960  0.012 26.970  0.013 26.980  0.041 26.990  0.053
 27.000  0.053 27.010  0.019 27.020 -0.037 27.030 -0.075 27.040 -0.057
 27.050 -0.048 27.060 -0.020 27.070 -0.013 27.080  0.009 27.090  0.021
 27.100  0.049 27.110  0.050 27.120  0.001 27.130 -0.041 27.140 -0.057
 27.150 -0.057 27.160 -0.057 27.170 -0.057 27.180 -0.057 27.190 -0.057
 27.200 -0.030 27.210  0.007 27.220  0.031 27.230  0.022 27.240 -0.006
 27.250 -0.013 27.260 -0.035 27.270 -0.010 27.280  0.046 27.290  0.075
 27.300  0.067 27.310  0.053 27.320  0.032 27.330  0.004 27.340 -0.013
 27.350 -0.013 27.360 -0.036 27.370 -0.049 27.380 -0.020 27.390  0.008
 27.400  0.031 27.410  0.031 27.420  0.031 27.430  0.010 27.440  0.031
 27.450  0.031 27.460  0.031 27.470  0.031 27.480  0.022 27.490 -0.006
 27.500 -0.013 27.510 -0.019 27.520 -0.047 27.530 -0.057 27.540 -0.079
 27.550 -0.079 27.560 -0.034 27.570  0.030 27.580  0.053 27.590  0.053
 27.600  0.036 27.610  0.030 27.620  0.009 27.630 -0.005 27.640 -0.033
 27.650 -0.061 27.660 -0.079 27.670 -0.045 27.680 -0.012 27.690  0.023
 27.700  0.067 27.710  0.075 27.720  0.072 27.730  0.034 27.740  0.009
 27.750 -0.013 27.760  0.009 27.770  0.022 27.780  0.013 27.790  0.009
 27.800  0.001 27.810 -0.013 27.820 -0.034 27.830 -0.029 27.840 -0.001
 27.850  0.009 27.860  0.009 27.870 -0.006 27.880 -0.063 27.890 -0.099
 27.900 -0.118 27.910 -0.079 27.920 -0.023 27.930  0.031 27.940  0.031
 27.950  0.018 27.960 -0.010 27.970 -0.082 27.980 -0.110 27.990 -0.107
 28.000 -0.057 28.010 -0.028 28.020 -0.000 28.030  0.009 28.040  0.031
 28.050  0.049 28.060  0.090 28.070  0.076 28.080  0.043 28.090 -0.025
 28.100 -0.074 28.110 -0.099 28.120 -0.071 28.130 -0.028 28.140  0.008
 28.150  0.031 28.160  0.031 28.170  0.015 28.180  0.009 28.190  0.016
 28.200  0.045 28.210  0.053 28.220  0.031 28.230  0.031 28.240  0.031
 28.250  0.031 28.260  0.075 28.270  0.063 28.280  0.035 28.290  0.007
 28.300 -0.021 28.310 -0.035 28.320 -0.013 28.330  0.020 28.340  0.042
 28.350 -0.004 28.360 -0.035 28.370 -0.027 28.380 -0.013 28.390 -0.013
 28.400 -0.039 28.410 -0.067 28.420 -0.062 28.430 -0.033 28.440  0.016
 28.450  0.045 28.460  0.053 28.470  0.024 28.480 -0.022 28.490 -0.035
 28.500 -0.035 28.510 -0.013 28.520 -0.000 28.530  0.009 28.540  0.009
 28.550  0.001 28.560  0.002 28.570  0.031 28.580  0.048 28.590  0.031
 28.600  0.031 28.610  0.008 28.620 -0.020 28.630 -0.063 28.640 -0.058
 28.650 -0.057 28.660 -0.057 28.670 -0.073 28.680 -0.100 28.690 -0.093
 28.700 -0.039 28.710  0.026 28.720  0.079 28.730  0.088 28.740  0.060
 28.750  0.053 28.760  0.053 28.770  0.041 28.780  0.013 28.790 -0.037
 28.800 -0.065 28.810 -0.079 28.820 -0.057 28.830 -0.046 28.840 -0.001
 28.850  0.027 28.860  0.053 28.870  0.061 28.880  0.075 28.890  0.055
 28.900  0.023 28.910 -0.013 28.920 -0.029 28.930 -0.035 28.940 -0.064
 28.950 -0.079 28.960 -0.059 28.970 -0.031 28.980 -0.003 28.990  0.025
 29.000  0.031 29.010  0.031 29.020  0.044 29.030  0.053 29.040  0.073
 29.050  0.045 29.060  0.001 29.070 -0.055 29.080 -0.073 29.090 -0.034
 29.100  0.005 29.110  0.035 29.120  0.091 29.130  0.147 29.140  0.183
 29.150  0.159 29.160  0.131 29.170  0.086 29.180  0.075 29.190  0.068
 29.200  0.027 29.210 -0.049 29.220 -0.079 29.230 -0.059 29.240 -0.003
 29.250  0.075 29.260  0.075 29.270  0.075 29.280  0.057 29.290  0.051
 29.300  0.031 29.310  0.031 29.320  0.031 29.330 -0.018 29.340 -0.057
 29.350 -0.096 29.360 -0.099 29.370 -0.071 29.380 -0.028 29.390  0.048
 29.400  0.075 29.410  0.054 29.420 -0.002 29.430 -0.013 29.440 -0.020
 29.450 -0.035 29.460 -0.054 29.470 -0.082 29.480 -0.100 29.490 -0.100
 29.500 -0.079 29.510 -0.057 29.520 -0.081 29.530 -0.100 29.540 -0.120
 29.550 -0.092 29.560 -0.049 29.570  0.029 29.580  0.086 29.590  0.131
 29.600  0.124 29.610  0.094 29.620  0.030 29.630 -0.041 29.640 -0.097
 29.650 -0.118 29.660 -0.090 29.670 -0.062 29.680 -0.035 29.690 -0.064
 29.700 -0.052 29.710 -0.015 29.720  0.013 29.730  0.031 29.740  0.047
 29.750  0.053 29.760  0.047 29.770  0.031 29.780  0.031 29.790 -0.018
 29.800 -0.065 29.810 -0.093 29.820 -0.100 29.830 -0.068 29.840 -0.023
 29.850  0.023 29.860  0.055 29.870  0.067 29.880  0.053 29.890  0.053
 29.900  0.018 29.910 -0.045 29.920 -0.073 29.930 -0.078 29.940 -0.042
 29.950  0.014 29.960  0.051 29.970  0.072 29.980  0.044 29.990  0.031
 30.000  0.031 30.010  0.031 30.020  0.019 30.030 -0.009 30.040 -0.037
 30.050 -0.065 30.060 -0.064 30.070 -0.035 30.080  0.015 30.090  0.043
 30.100  0.071 30.110  0.077 30.120  0.089 30.130  0.089 30.140  0.097
 30.150  0.071 30.160  0.043 30.170 -0.002 30.180 -0.035 30.190 -0.057
 30.200 -0.043 30.210 -0.015 30.220  0.009 30.230  0.019 30.240  0.031
 30.250  0.053 30.260  0.025 30.270 -0.003 30.280 -0.031 30.290 -0.035
 30.300 -0.043 30.310 -0.057 30.320 -0.057 30.330 -0.051 30.340 -0.035
 30.350 -0.017 30.360 -0.013 30.370 -0.013 30.380  0.001 30.390  0.030
 30.400  0.036 30.410  0.053 30.420  0.053 30.430  0.009 30.440 -0.020
 30.450 -0.035 30.460 -0.015 30.470 -0.035 30.480 -0.015 30.490  0.025
 30.500  0.031 30.510  0.025 30.520 -0.003 30.530 -0.031 30.540 -0.037
 30.550 -0.065 30.560 -0.079 30.570 -0.079 30.580 -0.051 30.590 -0.012
 30.600  0.009 30.610  0.011 30.620  0.039 30.630  0.053 30.640  0.074
 30.650  0.049 30.660  0.010 30.670 -0.046 30.680 -0.100 30.690 -0.093
 30.700 -0.065 30.710 -0.037 30.720  0.016 30.730  0.063 30.740  0.091
 30.750  0.097 30.760  0.091 30.770  0.063 30.780  0.035 30.790  0.007
 30.800 -0.021 30.810 -0.049 30.820 -0.078 30.830 -0.057 30.840 -0.057
 30.850 -0.021 30.860  0.011 30.870  0.039 30.880  0.067 30.890  0.116
 30.900  0.119 30.910  0.119 30.920  0.119 30.930  0.096 30.940  0.046
 30.950  0.018 30.960 -0.010 30.970 -0.038 30.980 -0.066 30.990 -0.079
 31.000 -0.079 31.010 -0.050 31.020 -0.022 31.030  0.024 31.040  0.053
 31.050  0.053 31.060  0.053 31.070  0.053 31.080  0.026 31.090 -0.002
 31.100 -0.030 31.110 -0.013 31.120 -0.005 31.130  0.009 31.140  0.009
 31.150  0.031 31.160  0.031 31.170  0.015 31.180  0.009 31.190  0.009
 31.200 -0.004 31.210 -0.051 31.220 -0.079 31.230 -0.069 31.240 -0.025
 31.250  0.009 31.260  0.038 31.270  0.066 31.280  0.075 31.290  0.026
 31.300 -0.021 31.310 -0.049 31.320 -0.078 31.330 -0.084 31.340 -0.089
 31.350 -0.061 31.360 -0.055 31.370 -0.035 31.380 -0.035 31.390 -0.055
 31.400 -0.057 31.410 -0.046 31.420 -0.035 31.430 -0.012 31.440  0.016
 31.450  0.031 31.460  0.031 31.470  0.006 31.480 -0.022 31.490 -0.035
 31.500 -0.035 31.510 -0.035 31.520 -0.047 31.530 -0.057 31.540 -0.054
 31.550 -0.017 31.560  0.039 31.570  0.053 31.580  0.053 31.590  0.042
 31.600  0.014 31.610 -0.011 31.620  0.001 31.630 -0.013 31.640 -0.013
 31.650 -0.013 31.660 -0.013 31.670  0.004 31.680  0.054 31.690  0.082
 31.700  0.097 31.710  0.097 31.720  0.072 31.730  0.044 31.740  0.016
 31.750  0.009 31.760  0.003 31.770 -0.013 31.780 -0.013 31.790 -0.013
 31.800 -0.013 31.810 -0.013 31.820 -0.013 31.830 -0.013 31.840 -0.001
 31.850 -0.008 31.860 -0.014 31.870 -0.035 31.880 -0.020 31.890 -0.013
 31.900 -0.017 31.910 -0.035 31.920 -0.018 31.930 -0.011 31.940  0.031
 31.950  0.031 31.960  0.031 31.970  0.028 31.980 -0.000 31.990 -0.028
 32.000  0.009 32.010  0.031 32.020  0.044 32.030  0.035 32.040  0.007
 32.050 -0.021 32.060 -0.020 32.070  0.009 32.080  0.004 32.090 -0.024
 32.100 -0.035 32.110 -0.035 32.120 -0.027 32.130  0.016 32.140  0.031
 32.150  0.027 32.160 -0.001 32.170 -0.029 32.180 -0.034 32.190 -0.006
 32.200  0.023 32.210  0.031 32.220  0.031 32.230  0.031 32.240  0.031
 32.250  0.009 32.260 -0.013 32.270 -0.037 32.280 -0.057 32.290 -0.051
 32.300 -0.004 32.310  0.009 32.320  0.031 32.330  0.031 32.340  0.043
 32.350  0.036 32.360  0.030 32.370  0.001 32.380 -0.013 32.390 -0.033
 32.400 -0.035 32.410 -0.035 32.420 -0.051 32.430 -0.057 32.440 -0.049
 32.450 -0.021 32.460 -0.013 32.470 -0.013 32.480 -0.003 32.490  0.009
 32.500  0.009 32.510  0.009 32.520  0.009 32.530  0.009 32.540  0.009
 32.550  0.009 32.560  0.009 32.570  0.009 32.580  0.015 32.590  0.031
 32.600  0.031 32.610 -0.014 32.620 -0.050 32.630 -0.064 32.640 -0.057
 32.650 -0.030 32.660 -0.002 32.670  0.009 32.680  0.009 32.690  0.002
 32.700 -0.013 32.710 -0.013 32.720 -0.013 32.730 -0.003 32.740  0.009
 32.750 -0.013 32.760 -0.035 32.770 -0.022 32.780  0.006 32.790  0.034
 32.800  0.053 32.810  0.053 32.820  0.032 32.830  0.004 32.840 -0.013
 32.850 -0.030 32.860 -0.011 32.870  0.017 32.880  0.045 32.890  0.033
 32.900  0.031 32.910  0.031 32.920  0.031 32.930  0.032 32.940  0.046
 32.950  0.031 32.960  0.012 32.970 -0.016 32.980 -0.035 32.990 -0.019
 33.000  0.009 33.010  0.009 33.020  0.009 33.030 -0.009 33.040 -0.013
 33.050 -0.013 33.060 -0.028 33.070 -0.056 33.080 -0.079 33.090 -0.067
 33.100 -0.039 33.110 -0.011 33.120  0.017 33.130  0.031 33.140  0.011
 33.150 -0.017 33.160 -0.045 33.170 -0.040 33.180 -0.034 33.190 -0.020
 33.200 -0.035 33.210 -0.054 33.220 -0.079 33.230 -0.079 33.240 -0.063
 33.250 -0.035 33.260 -0.028 33.270 -0.000 33.280  0.028 33.290  0.053
 33.300  0.045 33.310  0.031 33.320  0.010 33.330 -0.013 33.340 -0.013
 33.350  0.005 33.360  0.031 33.370  0.031 33.380  0.017 33.390  0.009
 33.400  0.009 33.410  0.009 33.420  0.009 33.430  0.010 33.440  0.024
 33.450 -0.004 33.460 -0.032 33.470 -0.035 33.480 -0.025 33.490  0.003
 33.500  0.031 33.510  0.031 33.520  0.031 33.530  0.013 33.540  0.029
 33.550  0.009 33.560 -0.006 33.570 -0.013 33.580  0.037 33.590  0.053
 33.600  0.036 33.610  0.030 33.620  0.009 33.630  0.009 33.640  0.030
 33.650  0.049 33.660  0.021 33.670  0.009 33.680 -0.013 33.690 -0.013
 33.700 -0.013 33.710 -0.032 33.720 -0.031 33.730 -0.013 33.740 -0.013
 33.750 -0.013 33.760 -0.041 33.770 -0.044 33.780 -0.016 33.790 -0.013
 33.800 -0.004 33.810  0.009 33.820  0.009 33.830 -0.023 33.840 -0.057
 33.850 -0.074 33.860 -0.055 33.870 -0.027 33.880  0.001 33.890  0.009
 33.900  0.009 33.910  0.009 33.920 -0.007 33.930  0.009 33.940 -0.013
 33.950 -0.013 33.960  0.007 33.970  0.009 33.980  0.009 33.990  0.009
 34.000  0.009 34.010  0.009 34.020  0.009 34.030  0.009 34.040  0.031
 34.050  0.031 34.060  0.031 34.070  0.052 34.080  0.081 34.090  0.120
 34.100  0.141 34.110  0.114 34.120  0.045 34.130  0.003 34.140 -0.033
 34.150 -0.057 34.160 -0.046 34.170 -0.018 34.180  0.010 34.190  0.038
 34.200  0.053 34.210  0.034 34.220  0.009 34.230  0.009 34.240  0.009
 34.250 -0.013 34.260 -0.035 34.270 -0.035 34.280 -0.035 34.290 -0.035
 34.300 -0.035 34.310 -0.035 34.320 -0.056 34.330 -0.057 34.340 -0.045
 34.350 -0.017 34.360 -0.036 34.370 -0.064 34.380 -0.079 34.390 -0.099
 34.400 -0.070 34.410 -0.013 34.420  0.026 34.430  0.031 34.440  0.024
 34.450  0.023 34.460  0.031 34.470  0.031 34.480  0.041 34.490  0.038
 34.500  0.009 34.510 -0.013 34.520 -0.013 34.530 -0.031 34.540 -0.035
 34.550 -0.035 34.560 -0.035 34.570 -0.013 34.580 -0.007 34.590  0.021
 34.600  0.031 34.610  0.053 34.620  0.061 34.630  0.075 34.640  0.075
 34.650  0.049 34.660  0.031 34.670 -0.002 34.680 -0.014 34.690 -0.064
 34.700 -0.092 34.710 -0.100 34.720 -0.071 34.730 -0.025 34.740  0.003
 34.750  0.009 34.760  0.009 34.770  0.009 34.780  0.009 34.790  0.009
 34.800  0.009 34.810  0.009 34.820 -0.012 34.830 -0.013 34.840 -0.013
 34.850 -0.013 34.860  0.011 34.870  0.031 34.880  0.031 34.890  0.031
 34.900  0.036 34.910  0.043 34.920  0.015 34.930  0.008 34.940 -0.028
 34.950 -0.013 34.960 -0.013 34.970 -0.016 34.980 -0.044 34.990 -0.057
/&  ----------  END OF DATA FOR CHANNEL 2  ----------
UNCORRECTED ACCELEROGRAM DATA              PROCESSED: 06/30/2011
0911131
11/12/2009 23:09:53 (GMT)               (ORIGIN: 11/12/2009 23:09:53 GMT)
                                   TRIGGER TIME: 11/12/2009 23:10:03.000 GMT
STATION NO.          0.000N    0.000E  QDR       S/N  673 (3  CHNS OF 3  AT STA)
QDR S/N 673
CHAN  3: V        (STA CHN:  3)               
UNIVERSIDAD DE CHILE - RENADIC
HYPOCENTER:   0.000N    0.000E  H=   0.0KM   ML= 0.00
INSTR PERIOD = 0.0391 SEC,  DAMPING =0.7000,  SENSITIVITY =1.250 VDC/G
NO. OF POINTS =   3500  RECORD LENGTH = 35.000 SEC
UNITS OF UNCOR ACCEL ARE SEC AND G/10.     MAX  =  0.035 G, AT   4.750 SEC
RMS ACCEL OF COMPLETE RECORD = 0.006 G
    3    1    3    3    3    0    1    0    0    0    0    0    0    0    0    0
    0    0    0    0    0    0    0    0    0    0    0 3500    7   11   30    0
    0    0    0    0    0    0    0    0    0    0    0    0    0    0    0    0
    0    0    0    0    0    0    0    0    0    0    0    0    0    0    0    0
    0    0    0    0    0    0    0    0    0    0    0    0    0    0    0    0
    0    0    0    0    0    0    0    0    0    0    0    0    0    0    0    0
    0    0    0    0
     0.039     0.700    35.000     0.006     0.100     1.250     0.035     4.750
    25.575     0.000     0.000     0.000    10.000     0.000    10.000    10.000
     0.000     0.000     0.000     0.000     0.000     0.000     0.000     0.000
     0.000     0.000     0.000     0.000     0.000     0.000     0.000     0.000
     0.000     0.000     0.000     0.000     0.000     0.000     0.000     0.000
     0.000     0.000     0.000     0.000     0.000     0.000     0.000     0.000
     0.000     0.000
  0.000  0.037  0.010  0.031  0.020  0.015  0.030 -0.004  0.040 -0.011
  0.050 -0.039  0.060 -0.053  0.070 -0.010  0.080 -0.008  0.090 -0.008
  0.100 -0.008  0.110 -0.006  0.120  0.007  0.130 -0.008  0.140 -0.008
  0.150  0.037  0.160  0.037  0.170  0.020  0.180  0.014  0.190 -0.008
  0.200 -0.021  0.210 -0.011  0.220  0.022  0.230  0.070  0.240  0.082
  0.250  0.015  0.260 -0.037  0.270 -0.053  0.280 -0.034  0.290 -0.008
  0.300 -0.008  0.310 -0.008  0.320  0.014  0.330  0.009  0.340 -0.020
  0.350 -0.030  0.360 -0.006  0.370  0.015  0.380  0.015  0.390 -0.006
  0.400 -0.053  0.410 -0.042  0.420  0.004  0.430  0.038  0.440  0.060
  0.450  0.073  0.460  0.082  0.470  0.082  0.480  0.072  0.490  0.043
  0.500  0.015  0.510 -0.059  0.520 -0.088  0.530 -0.098  0.540 -0.095
  0.550 -0.048  0.560  0.038  0.570  0.060  0.580  0.032  0.590  0.015
  0.600  0.015  0.610  0.013  0.620 -0.008  0.630 -0.022  0.640 -0.030
  0.650 -0.048  0.660 -0.020  0.670  0.009  0.680  0.036  0.690  0.015
  0.700  0.015  0.710  0.015  0.720  0.011  0.730 -0.018  0.740 -0.030
  0.750 -0.008  0.760  0.043  0.770  0.047  0.780 -0.001  0.790 -0.008
  0.800  0.001  0.810 -0.001  0.820 -0.008  0.830  0.020  0.840  0.037
  0.850  0.037  0.860 -0.010  0.870 -0.030  0.880 -0.016  0.890  0.034
  0.900  0.042  0.910  0.060  0.920  0.043  0.930  0.036  0.940  0.000
  0.950 -0.030  0.960 -0.050  0.970 -0.049  0.980 -0.030  0.990 -0.030
  1.000 -0.053  1.010 -0.024  1.020  0.005  1.030 -0.023  1.040 -0.053
  1.050 -0.044  1.060 -0.030  1.070 -0.030  1.080 -0.003  1.090  0.015
  1.100  0.015  1.110  0.013  1.120 -0.008  1.130 -0.008  1.140  0.034
  1.150  0.055  1.160  0.026  1.170  0.015  1.180  0.038  1.190  0.060
  1.200  0.046  1.210  0.037  1.220  0.037  1.230  0.047  1.240  0.043
  1.250 -0.008  1.260 -0.030  1.270 -0.030  1.280 -0.030  1.290 -0.008
  1.300 -0.008  1.310 -0.008  1.320  0.014  1.330 -0.013  1.340 -0.042
  1.350 -0.053  1.360 -0.006  1.370  0.015  1.380  0.015  1.390 -0.027
  1.400 -0.003  1.410  0.025  1.420  0.020  1.430 -0.054  1.440 -0.075
  1.450 -0.048  1.460  0.009  1.470 -0.012  1.480 -0.021  1.490  0.025
  1.500  0.037  1.510  0.008  1.520 -0.008  1.530 -0.027  1.540 -0.005
  1.550  0.015  1.560 -0.001  1.570 -0.008  1.580  0.015  1.590 -0.009
  1.600 -0.048  1.610 -0.053  1.620 -0.053  1.630 -0.010  1.640  0.035
  1.650  0.037  1.660  0.026  1.670  0.032  1.680  0.037  1.690  0.030
  1.700  0.015  1.710  0.054  1.720  0.052  1.730 -0.005  1.740 -0.030
  1.750 -0.008  1.760 -0.030  1.770 -0.043  1.780 -0.034  1.790  0.020
  1.800  0.069  1.810  0.067  1.820 -0.005  1.830 -0.030  1.840 -0.019
  1.850  0.010  1.860  0.060  1.870  0.052  1.880  0.008  1.890 -0.070
  1.900 -0.071  1.910 -0.031  1.920  0.009  1.930  0.038  1.940  0.052
  1.950  0.051  1.960  0.040  1.970  0.004  1.980 -0.063  1.990 -0.075
  2.000 -0.053  2.010 -0.047  2.020 -0.030  2.030 -0.030  2.040 -0.056
  2.050 -0.066  2.060 -0.022  2.070  0.035  2.080  0.060  2.090  0.048
  2.100  0.037  2.110  0.037  2.120  0.037  2.130  0.023  2.140  0.015
  2.150 -0.012  2.160 -0.052  2.170 -0.058  2.180 -0.028  2.190  0.044
  2.200  0.060  2.210  0.040  2.220  0.007  2.230 -0.021  2.240 -0.008
  2.250  0.015  2.260  0.015  2.270  0.015  2.280  0.015  2.290 -0.013
  2.300 -0.062  2.310 -0.060  2.320 -0.010  2.330  0.015  2.340  0.003
  2.350 -0.026  2.360 -0.029  2.370  0.000  2.380  0.029  2.390  0.079
  2.400  0.078  2.410  0.049  2.420  0.020  2.430 -0.031  2.440 -0.060
  2.450 -0.062  2.460 -0.013  2.470  0.015  2.480  0.025  2.490  0.053
  2.500  0.082  2.510  0.025  2.520 -0.033  2.530 -0.053  2.540 -0.025
  2.550  0.024  2.560  0.037  2.570  0.037  2.580  0.009  2.590 -0.008
  2.600 -0.026  2.610 -0.030  2.620 -0.039  2.630 -0.053  2.640 -0.032
  2.650 -0.003  2.660  0.015  2.670  0.015  2.680 -0.009  2.690 -0.038
  2.700 -0.053  2.710 -0.033  2.720 -0.008  2.730 -0.008  2.740  0.008
  2.750  0.015  2.760 -0.014  2.770 -0.043  2.780 -0.034  2.790 -0.003
  2.800  0.055  2.810  0.082  2.820  0.061  2.830  0.015  2.840  0.003
  2.850  0.010  2.860  0.015  2.870  0.015  2.880  0.015  2.890  0.015
  2.900  0.019  2.910  0.037  2.920  0.037  2.930  0.037  2.940  0.037
  2.950  0.024  2.960 -0.005  2.970  0.015  2.980 -0.005  2.990 -0.063
  3.000 -0.075  3.010 -0.040  3.020  0.005  3.030  0.015  3.040  0.015
  3.050  0.033  3.060  0.060  3.070 -0.005  3.080 -0.048  3.090 -0.007
  3.100  0.051  3.110  0.035  3.120 -0.002  3.130 -0.016  3.140 -0.029
  3.150 -0.048  3.160 -0.020  3.170  0.026  3.180  0.080  3.190  0.023
  3.200 -0.035  3.210 -0.033  3.220  0.015  3.230  0.005  3.240 -0.024
  3.250 -0.053  3.260 -0.053  3.270 -0.053  3.280 -0.034  3.290  0.023
  3.300  0.091  3.310  0.120  3.320  0.084  3.330  0.054  3.340  0.014
  3.350 -0.044  3.360 -0.074  3.370 -0.037  3.380 -0.008  3.390 -0.029
  3.400 -0.053  3.410 -0.042  3.420  0.004  3.430  0.014  3.440 -0.022
  3.450 -0.080  3.460 -0.078  3.470 -0.004  3.480  0.005  3.490 -0.024
  3.500 -0.008  3.510  0.015  3.520  0.015  3.530  0.015  3.540 -0.011
  3.550 -0.030  3.560  0.000  3.570  0.079  3.580  0.105  3.590  0.070
  3.600 -0.017  3.610 -0.072  3.620 -0.022  3.630 -0.008  3.640 -0.049
  3.650 -0.044  3.660  0.003  3.670  0.049  3.680  0.059  3.690  0.044
  3.700  0.046  3.710 -0.003  3.720 -0.057  3.730 -0.075  3.740 -0.075
  3.750 -0.030  3.760  0.021  3.770  0.037  3.780  0.037  3.790  0.037
  3.800  0.037  3.810  0.022  3.820  0.015  3.830 -0.008  3.840 -0.020
  3.850 -0.030  3.860 -0.030  3.870 -0.030  3.880 -0.016  3.890 -0.008
  3.900  0.019  3.910  0.037  3.920  0.020  3.930  0.016  3.940  0.052
  3.950  0.024  3.960 -0.025  3.970 -0.053  3.980 -0.033  3.990  0.008
  4.000  0.037  4.010  0.088  4.020  0.092  4.030  0.063  4.040  0.032
  4.050 -0.008  4.060  0.007  4.070  0.015  4.080 -0.019  4.090 -0.065
  4.100 -0.075  4.110 -0.051  4.120 -0.022  4.130 -0.008  4.140 -0.008
  4.150  0.015  4.160  0.004  4.170 -0.025  4.180 -0.030  4.190  0.007
  4.200  0.037  4.210 -0.003  4.220 -0.004  4.230  0.015  4.240 -0.002
  4.250 -0.030  4.260 -0.018  4.270  0.027  4.280  0.018  4.290  0.037
  4.300  0.037  4.310  0.022  4.320 -0.029  4.330 -0.048  4.340 -0.019
  4.350 -0.008  4.360 -0.010  4.370 -0.022  4.380 -0.022  4.390 -0.030
  4.400 -0.003  4.410  0.015  4.420 -0.003  4.430  0.016  4.440  0.037
  4.450  0.024  4.460 -0.005  4.470 -0.030  4.480 -0.030  4.490 -0.014
  4.500 -0.008  4.510  0.027  4.520  0.072  4.530  0.063  4.540  0.012
  4.550 -0.008  4.560 -0.008  4.570 -0.030  4.580 -0.030  4.590 -0.019
  4.600 -0.008  4.610 -0.010  4.620 -0.030  4.630 -0.045  4.640 -0.074
  4.650 -0.062  4.660  0.025  4.670  0.111  4.680  0.104  4.690  0.068
  4.700  0.010  4.710 -0.008  4.720 -0.008  4.730  0.002  4.740  0.031
  4.750  0.015  4.760 -0.008  4.770  0.005  4.780 -0.004  4.790 -0.008
  4.800 -0.017  4.810 -0.030  4.820 -0.052  4.830 -0.081  4.840 -0.075
  4.850 -0.035  4.860 -0.008  4.870 -0.008  4.880  0.007  4.890  0.035
  4.900  0.010  4.910 -0.019  4.920 -0.013  4.930  0.039  4.940  0.097
  4.950  0.114  4.960  0.065  4.970  0.007  4.980 -0.030  4.990 -0.030
  5.000 -0.030  5.010 -0.024  5.020  0.005  5.030  0.034  5.040  0.057
  5.050  0.019  5.060 -0.039  5.070 -0.075  5.080 -0.070  5.090 -0.030
  5.100 -0.008  5.110 -0.032  5.120 -0.053  5.130 -0.039  5.140  0.011
  5.150  0.019  5.160  0.037  5.170  0.054  5.180  0.082  5.190  0.068
  5.200 -0.003  5.210 -0.050  5.220 -0.042  5.230  0.025  5.240  0.021
  5.250 -0.008  5.260 -0.002  5.270  0.015  5.280 -0.004  5.290 -0.030
  5.300 -0.030  5.310 -0.015  5.320  0.035  5.330  0.065  5.340  0.106
  5.350  0.109  5.360  0.054  5.370 -0.016  5.380 -0.016  5.390  0.013
  5.400  0.015  5.410  0.015  5.420  0.032  5.430  0.036  5.440  0.000
  5.450 -0.044  5.460 -0.053  5.470 -0.075  5.480 -0.066  5.490 -0.037
  5.500 -0.008  5.510 -0.014  5.520 -0.030  5.530 -0.030  5.540 -0.056
  5.550 -0.075  5.560 -0.060  5.570 -0.010  5.580  0.015  5.590  0.015
  5.600  0.033  5.610  0.035  5.620  0.015  5.630  0.015  5.640  0.056
  5.650  0.078  5.660  0.049  5.670  0.020  5.680  0.015  5.690  0.022
  5.700  0.037  5.710  0.017  5.720 -0.008  5.730  0.002  5.740  0.015
  5.750 -0.030  5.760 -0.059  5.770 -0.063  5.780 -0.015  5.790  0.062
  5.800  0.073  5.810  0.060  5.820  0.038  5.830  0.026  5.840 -0.020
  5.850 -0.030  5.860 -0.006  5.870  0.015  5.880  0.000  5.890 -0.008
  5.900 -0.035  5.910 -0.053  5.920 -0.036  5.930 -0.007  5.940  0.022
  5.950  0.024  5.960  0.015  5.970  0.015  5.980  0.015  5.990  0.015
  6.000 -0.008  6.010 -0.024  6.020  0.005  6.030  0.034  6.040  0.034
  6.050  0.006  6.060 -0.023  6.070 -0.030  6.080 -0.003  6.090  0.003
  6.100 -0.008  6.110  0.039  6.120  0.052  6.130  0.008  6.140 -0.070
  6.150 -0.093  6.160 -0.065  6.170 -0.036  6.180 -0.029  6.190  0.022
  6.200  0.037  6.210  0.017  6.220  0.011  6.230 -0.008  6.240 -0.008
  6.250 -0.008  6.260 -0.030  6.270 -0.018  6.280  0.030  6.290  0.085
  6.300  0.114  6.310  0.127  6.320  0.062  6.330 -0.024  6.340 -0.099
  6.350 -0.121  6.360 -0.096  6.370 -0.059  6.380 -0.016  6.390  0.013
  6.400  0.010  6.410 -0.008  6.420 -0.025  6.430  0.016  6.440  0.044
  6.450  0.060  6.460  0.040  6.470  0.011  6.480 -0.028  6.490 -0.069
  6.500 -0.075  6.510 -0.024  6.520  0.005  6.530  0.034  6.540  0.057
  6.550  0.028  6.560 -0.001  6.570 -0.030  6.580 -0.036  6.590 -0.053
  6.600 -0.035  6.610 -0.010  6.620 -0.030  6.630 -0.016  6.640  0.054
  6.650  0.078  6.660  0.049  6.670  0.037  6.680  0.014  6.690 -0.001
  6.700  0.015  6.710  0.015  6.720  0.041  6.730  0.070  6.740  0.066
  6.750  0.015  6.760 -0.014  6.770 -0.018  6.780 -0.008  6.790 -0.008
  6.800 -0.008  6.810 -0.008  6.820 -0.008  6.830  0.020  6.840  0.025
  6.850 -0.003  6.860 -0.032  6.870 -0.061  6.880 -0.061  6.890 -0.032
  6.900 -0.008  6.910 -0.019  6.920 -0.030  6.930  0.016  6.940  0.052
  6.950  0.082  6.960  0.082  6.970  0.052  6.980  0.015  6.990 -0.002
  7.000 -0.030  7.010 -0.043  7.020 -0.088  7.030 -0.098  7.040 -0.048
  7.050  0.010  7.060  0.052  7.070  0.038  7.080  0.032  7.090 -0.009
  7.100 -0.066  7.110 -0.098  7.120 -0.082  7.130 -0.039  7.140  0.011
  7.150  0.042  7.160  0.049  7.170  0.020  7.180  0.015  7.190  0.015
  7.200  0.001  7.210 -0.048  7.220 -0.075  7.230 -0.066  7.240 -0.021
  7.250  0.037  7.260  0.037  7.270  0.037  7.280  0.037  7.290 -0.008
  7.300 -0.008  7.310  0.007  7.320  0.036  7.330  0.032  7.340 -0.009
  7.350 -0.048  7.360 -0.004  7.370  0.045  7.380  0.060  7.390  0.060
  7.400  0.055  7.410  0.048  7.420  0.060  7.430  0.037  7.440  0.037
  7.450  0.024  7.460 -0.005  7.470 -0.030  7.480 -0.021  7.490  0.008
  7.500  0.037  7.510  0.037  7.520  0.025  7.530 -0.042  7.540 -0.101
  7.550 -0.103  7.560 -0.045  7.570 -0.009  7.580  0.020  7.590  0.025
  7.600 -0.039  7.610 -0.075  7.620 -0.067  7.630 -0.039  7.640 -0.010
  7.650  0.024  7.660  0.060  7.670  0.025  7.680 -0.031  7.690 -0.046
  7.700 -0.003  7.710  0.034  7.720  0.034  7.730  0.015  7.740  0.015
  7.750  0.015  7.760 -0.014  7.770 -0.030  7.780 -0.012  7.790 -0.033
  7.800 -0.062  7.810 -0.060  7.820 -0.010  7.830  0.043  7.840  0.048
  7.850  0.019  7.860 -0.032  7.870 -0.053  7.880 -0.024  7.890  0.054
  7.900  0.064  7.910  0.082  7.920  0.099  7.930  0.103  7.940  0.052
  7.950  0.024  7.960 -0.005  7.970 -0.008  7.980 -0.008  7.990 -0.008
  8.000 -0.008  8.010 -0.021  8.020 -0.066  8.030 -0.057  8.040 -0.008
  8.050 -0.008  8.060 -0.023  8.070 -0.009  8.080 -0.008  8.090 -0.008
  8.100  0.010  8.110  0.015  8.120  0.007  8.130 -0.008  8.140 -0.008
  8.150 -0.003  8.160  0.015  8.170  0.015  8.180 -0.031  8.190 -0.060
  8.200 -0.089  8.210 -0.078  8.220 -0.023  8.230  0.034  8.240  0.060
  8.250  0.015  8.260 -0.037  8.270 -0.053  8.280 -0.053  8.290 -0.050
  8.300 -0.021  8.310  0.007  8.320  0.015  8.330 -0.013  8.340 -0.030
  8.350 -0.012  8.360  0.016  8.370  0.045  8.380  0.060  8.390  0.039
  8.400  0.033  8.410  0.015  8.420  0.015  8.430  0.015  8.440  0.007
  8.450 -0.021  8.460 -0.050  8.470 -0.023  8.480  0.025  8.490  0.037
  8.500  0.015  8.510 -0.008  8.520  0.005  8.530  0.015  8.540 -0.008
  8.550 -0.008  8.560  0.007  8.570  0.015  8.580  0.015  8.590  0.026
  8.600  0.019  8.610  0.015  8.620  0.023  8.630  0.037  8.640  0.016
  8.650 -0.008  8.660 -0.008  8.670  0.009  8.680  0.014  8.690 -0.015
  8.700 -0.044  8.710 -0.033  8.720 -0.004  8.730  0.025  8.740  0.037
  8.750  0.060  8.760  0.060  8.770  0.047  8.780  0.018  8.790 -0.008
  8.800  0.001  8.810  0.015  8.820  0.015  8.830  0.015  8.840  0.026
  8.850  0.037  8.860  0.061  8.870  0.074  8.880  0.031  8.890 -0.027
  8.900 -0.048  8.910 -0.020  8.920 -0.008  8.930  0.015  8.940  0.015
  8.950  0.001  8.960 -0.028  8.970 -0.030  8.980 -0.040  8.990 -0.037
  9.000 -0.030  9.010 -0.037  9.020 -0.066  9.030 -0.057  9.040 -0.028
  9.050 -0.008  9.060 -0.008  9.070 -0.008  9.080 -0.008  9.090 -0.020
  9.100 -0.048  9.110 -0.075  9.120 -0.075  9.130 -0.061  9.140 -0.032
  9.150 -0.008  9.160 -0.008  9.170  0.026  9.180  0.037  9.190  0.037
  9.200  0.037  9.210  0.017  9.220 -0.012  9.230 -0.040  9.240 -0.053
  9.250 -0.053  9.260 -0.047  9.270 -0.018  9.280  0.011  9.290  0.015
  9.300  0.006  9.310 -0.023  9.320 -0.009  9.330  0.020  9.340  0.037
  9.350  0.019  9.360  0.037  9.370  0.037  9.380  0.008  9.390 -0.029
  9.400 -0.030  9.410 -0.030  9.420 -0.030  9.430 -0.008  9.440 -0.008
  9.450  0.006  9.460  0.034  9.470  0.034  9.480  0.015  9.490  0.015
  9.500 -0.008  9.510 -0.008  9.520 -0.008  9.530 -0.008  9.540 -0.003
  9.550  0.037  9.560  0.037  9.570  0.016  9.580  0.037  9.590  0.037
  9.600  0.019  9.610  0.015  9.620  0.015  9.630  0.029  9.640  0.058
  9.650  0.064  9.660  0.093  9.670  0.105  9.680  0.104  9.690  0.082
  9.700  0.096  9.710  0.125  9.720  0.105  9.730  0.105  9.740  0.088
  9.750  0.082  9.760  0.060  9.770  0.047  9.780  0.037  9.790  0.037
  9.800  0.028  9.810 -0.001  9.820 -0.008  9.830 -0.041  9.840 -0.087
  9.850 -0.116  9.860 -0.141  9.870 -0.104  9.880 -0.061  9.890 -0.012
  9.900  0.010  9.910 -0.019  9.920 -0.065  9.930 -0.121  9.940 -0.128
  9.950 -0.143  9.960 -0.143  9.970 -0.091  9.980 -0.043  9.990 -0.014
 10.000 -0.008 10.010 -0.024 10.020  0.005 10.030  0.034 10.040  0.009
 10.050 -0.039 10.060 -0.068 10.070 -0.075 10.080 -0.098 10.090 -0.098
 10.100 -0.116 10.110 -0.119 10.120 -0.090 10.130 -0.075 10.140 -0.055
 10.150 -0.026 10.160 -0.008 10.170 -0.025 10.180 -0.055 10.190 -0.112
 10.200 -0.184 10.210 -0.230 10.220 -0.248 10.230 -0.191 10.240 -0.117
 10.250 -0.030 10.260 -0.002 10.270  0.027 10.280  0.037 10.290  0.015
 10.300  0.015 10.310  0.045 10.320  0.103 10.330  0.105 10.340  0.105
 10.350  0.123 10.360  0.150 10.370  0.142 10.380  0.127 10.390  0.127
 10.400  0.150 10.410  0.150 10.420  0.133 10.430  0.105 10.440  0.105
 10.450  0.078 10.460  0.060 10.470  0.067 10.480  0.125 10.490  0.150
 10.500  0.150 10.510  0.143 10.520  0.127 10.530  0.127 10.540  0.147
 10.550  0.109 10.560  0.052 10.570 -0.028 10.580 -0.103 10.590 -0.097
 10.600 -0.039 10.610 -0.008 10.620 -0.016 10.630 -0.030 10.640 -0.051
 10.650 -0.080 10.660 -0.109 10.670 -0.086 10.680 -0.053 10.690 -0.053
 10.700 -0.066 10.710 -0.075 10.720 -0.049 10.730 -0.030 10.740 -0.014
 10.750 -0.008 10.760 -0.088 10.770 -0.133 10.780 -0.143 10.790 -0.067
 10.800 -0.008 10.810 -0.023 10.820 -0.074 10.830 -0.103 10.840 -0.132
 10.850 -0.143 10.860 -0.070 10.870  0.025 10.880  0.111 10.890  0.148
 10.900  0.114 10.910  0.027 10.920 -0.042 10.930 -0.030 10.940  0.007
 10.950  0.064 10.960  0.082 10.970  0.034 10.980  0.025 10.990  0.086
 11.000  0.127 11.010  0.115 11.020  0.057 11.030 -0.020 11.040 -0.030
 11.050 -0.030 11.060 -0.030 11.070 -0.030 11.080 -0.030 11.090 -0.030
 11.100 -0.048 11.110 -0.027 11.120  0.039 11.130  0.111 11.140  0.127
 11.150  0.073 11.160  0.016 11.170 -0.025 11.180 -0.031 11.190 -0.060
 11.200 -0.089 11.210 -0.098 11.220 -0.046 11.230  0.012 11.240  0.037
 11.250  0.060 11.260  0.095 11.270  0.127 11.280  0.127 11.290  0.102
 11.300  0.064 11.310  0.007 11.320 -0.030 11.330 -0.048 11.340 -0.007
 11.350  0.051 11.360  0.105 11.370  0.105 11.380  0.105 11.390  0.063
 11.400  0.010 11.410  0.003 11.420  0.015 11.430  0.014 11.440 -0.015
 11.450 -0.044 11.460 -0.013 11.470 -0.008 11.480 -0.018 11.490 -0.014
 11.500  0.015 11.510  0.037 11.520 -0.001 11.530 -0.087 11.540 -0.193
 11.550 -0.233 11.560 -0.187 11.570 -0.122 11.580 -0.093 11.590 -0.075
 11.600 -0.075 11.610 -0.053 11.620 -0.053 11.630 -0.067 11.640 -0.075
 11.650 -0.125 11.660 -0.132 11.670 -0.103 11.680 -0.073 11.690  0.014
 11.700  0.100 11.710  0.207 11.720  0.266 11.730  0.265 11.740  0.175
 11.750  0.105 11.760  0.088 11.770  0.130 11.780  0.169 11.790  0.139
 11.800  0.024 11.810 -0.061 11.820 -0.054 11.830  0.008 11.840  0.060
 11.850  0.060 11.860  0.058 11.870  0.029 11.880 -0.014 11.890 -0.051
 11.900 -0.048 11.910 -0.009 11.920  0.049 11.930  0.106 11.940  0.127
 11.950  0.127 11.960  0.107 11.970  0.105 11.980  0.085 11.990  0.043
 12.000 -0.030 12.010 -0.094 12.020 -0.156 12.030 -0.166 12.040 -0.138
 12.050 -0.080 12.060 -0.022 12.070  0.057 12.080  0.077 12.090  0.036
 12.100 -0.039 12.110 -0.122 12.120 -0.151 12.130 -0.137 12.140 -0.079
 12.150 -0.030 12.160 -0.041 12.170 -0.070 12.180 -0.075 12.190 -0.068
 12.200 -0.039 12.210 -0.030 12.220 -0.012 12.230 -0.050 12.240 -0.092
 12.250 -0.143 12.260 -0.172 12.270 -0.175 12.280 -0.147 12.290 -0.070
 12.300 -0.021 12.310  0.007 12.320  0.036 12.330  0.088 12.340  0.116
 12.350  0.145 12.360  0.172 12.370  0.172 12.380  0.158 12.390  0.129
 12.400  0.096 12.410  0.049 12.420 -0.014 12.430 -0.077 12.440 -0.128
 12.450 -0.143 12.460 -0.123 12.470 -0.098 12.480 -0.088 12.490 -0.059
 12.500 -0.008 12.510  0.066 12.520  0.082 12.530  0.063 12.540  0.060
 12.550  0.060 12.560  0.029 12.570 -0.029 12.580 -0.058 12.590 -0.075
 12.600 -0.057 12.610 -0.029 12.620 -0.016 12.630 -0.016 12.640  0.013
 12.650  0.069 12.660  0.116 12.670  0.093 12.680  0.011 12.690 -0.090
 12.700 -0.107 12.710 -0.019 12.720  0.060 12.730  0.050 12.740  0.005
 12.750 -0.008 12.760 -0.002 12.770  0.015 12.780 -0.004 12.790 -0.005
 12.800  0.033 12.810  0.075 12.820  0.104 12.830  0.094 12.840  0.048
 12.850  0.019 12.860  0.015 12.870  0.023 12.880  0.052 12.890  0.080
 12.900  0.060 12.910  0.070 12.920  0.048 12.930 -0.031 12.940 -0.060
 12.950 -0.089 12.960 -0.098 12.970 -0.072 12.980 -0.033 12.990  0.041
 13.000  0.127 13.010  0.195 13.020  0.170 13.030  0.093 13.040  0.009
 13.050 -0.039 13.060 -0.068 13.070 -0.119 13.080 -0.087 13.090 -0.030
 13.100  0.010 13.110  0.037 13.120  0.029 13.130  0.000 13.140 -0.008
 13.150  0.001 13.160  0.048 13.170  0.043 13.180 -0.033 13.190 -0.120
 13.200 -0.193 13.210 -0.191 13.220 -0.155 13.230 -0.078 13.240 -0.069
 13.250 -0.098 13.260 -0.133 13.270 -0.178 13.280 -0.188 13.290 -0.110
 13.300  0.006 13.310  0.090 13.320  0.105 13.330  0.049 13.340 -0.009
 13.350 -0.030 13.360 -0.004 13.370  0.070 13.380  0.185 13.390  0.279
 13.400  0.226 13.410  0.129 13.420 -0.003 13.430 -0.099 13.440 -0.121
 13.450 -0.093 13.460 -0.016 13.470  0.089 13.480  0.137 13.490  0.117
 13.500  0.037 13.510 -0.037 13.520 -0.066 13.530 -0.094 13.540 -0.121
 13.550 -0.112 13.560 -0.067 13.570 -0.010 13.580  0.015 13.590  0.003
 13.600 -0.008 13.610 -0.010 13.620 -0.039 13.630 -0.053 13.640 -0.074
 13.650 -0.098 13.660 -0.109 13.670 -0.172 13.680 -0.233 13.690 -0.233
 13.700 -0.206 13.710 -0.148 13.720 -0.113 13.730 -0.056 13.740  0.018
 13.750  0.105 13.760  0.169 13.770  0.243 13.780  0.262 13.790  0.184
 13.800  0.069 13.810 -0.031 13.820 -0.075 13.830 -0.087 13.840 -0.006
 13.850  0.091 13.860  0.150 13.870  0.158 13.880  0.187 13.890  0.216
 13.900  0.190 13.910  0.172 13.920  0.138 13.930  0.056 13.940 -0.052
 13.950 -0.125 13.960 -0.123 13.970 -0.065 13.980  0.042 13.990  0.170
 14.000  0.240 14.010  0.186 14.020  0.042 14.030 -0.046 14.040 -0.003
 14.050  0.046 14.060  0.075 14.070  0.082 14.080  0.077 14.090  0.036
 14.100  0.015 14.110  0.041 14.120  0.090 14.130  0.090 14.140  0.041
 14.150 -0.044 14.160 -0.120 14.170 -0.177 14.180 -0.186 14.190 -0.143
 14.200 -0.184 14.210 -0.270 14.220 -0.293 14.230 -0.226 14.240 -0.139
 14.250 -0.075 14.260 -0.024 14.270  0.043 14.280  0.139 14.290  0.243
 14.300  0.253 14.310  0.194 14.320  0.107 14.330  0.038 14.340 -0.077
 14.350 -0.157 14.360 -0.188 14.370 -0.180 14.380 -0.137 14.390 -0.079
 14.400 -0.080 14.410 -0.098 14.420 -0.064 14.430  0.018 14.440  0.119
 14.450  0.150 14.460  0.070 14.470 -0.041 14.480 -0.108 14.490 -0.121
 14.500 -0.143 14.510 -0.137 14.520 -0.083 14.530 -0.034 14.540 -0.008
 14.550 -0.008 14.560 -0.008 14.570 -0.030 14.580 -0.064 14.590 -0.098
 14.600 -0.080 14.610 -0.027 14.620  0.015 14.630  0.015 14.640 -0.006
 14.650 -0.035 14.660 -0.064 14.670 -0.093 14.680 -0.075 14.690 -0.031
 14.700  0.042 14.710  0.139 14.720  0.225 14.730  0.282 14.740  0.340
 14.750  0.352 14.760  0.311 14.770  0.237 14.780  0.179 14.790  0.122
 14.800  0.073 14.810  0.044 14.820  0.037 14.830  0.043 14.840  0.071
 14.850  0.100 14.860  0.054 14.870 -0.024 14.880 -0.039 14.890  0.011
 14.900  0.042 14.910  0.049 14.920  0.020 14.930 -0.033 14.940 -0.120
 14.950 -0.193 14.960 -0.230 14.970 -0.226 14.980 -0.168 14.990 -0.094
 15.000 -0.030 15.010 -0.037 15.020 -0.040 15.030 -0.030 15.040 -0.061
 15.050 -0.130 15.060 -0.143 15.070 -0.143 15.080 -0.121 15.090 -0.121
 15.100 -0.121 15.110 -0.143 15.120 -0.135 15.130 -0.092 15.140 -0.013
 15.150  0.073 15.160  0.149 15.170  0.138 15.180  0.079 15.190  0.015
 15.200  0.028 15.210  0.037 15.220  0.093 15.230  0.170 15.240  0.195
 15.250  0.172 15.260  0.108 15.270  0.022 15.280 -0.103 15.290 -0.193
 15.300 -0.242 15.310 -0.225 15.320 -0.146 15.330 -0.065 15.340  0.005
 15.350  0.073 15.360  0.127 15.370  0.119 15.380  0.076 15.390  0.039
 15.400  0.015 15.410  0.025 15.420  0.054 15.430  0.084 15.440  0.127
 15.450  0.100 15.460 -0.017 15.470 -0.124 15.480 -0.143 15.490 -0.127
 15.500 -0.075 15.510 -0.012 15.520  0.075 15.530  0.124 15.540  0.125
 15.550  0.096 15.560  0.036 15.570 -0.050 15.580 -0.070 15.590 -0.030
 15.600 -0.008 15.610 -0.030 15.620 -0.030 15.630 -0.002 15.640  0.056
 15.650  0.132 15.660  0.139 15.670  0.110 15.680  0.035 15.690 -0.015
 15.700 -0.017 15.710  0.032 15.720  0.105 15.730  0.095 15.740  0.050
 15.750  0.015 15.760 -0.002 15.770  0.027 15.780  0.056 15.790  0.057
 15.800  0.037 15.810  0.037 15.820  0.016 15.830 -0.064 15.840 -0.110
 15.850 -0.139 15.860 -0.145 15.870 -0.166 15.880 -0.122 15.890 -0.057
 15.900 -0.008 15.910 -0.030 15.920 -0.121 15.930 -0.212 15.940 -0.233
 15.950 -0.206 15.960 -0.188 15.970 -0.184 15.980 -0.146 15.990 -0.088
 16.000 -0.053 16.010  0.005 16.020  0.062 16.030  0.158 16.040  0.217
 16.050  0.208 16.060  0.195 16.070  0.195 16.080  0.212 16.090  0.195
 16.100  0.159 16.110  0.103 16.120  0.074 16.130  0.031 16.140 -0.006
 16.150 -0.003 16.160  0.015 16.170  0.032 16.180  0.035 16.190 -0.030
 16.200 -0.116 16.210 -0.163 16.220 -0.192 16.230 -0.221 16.240 -0.217
 16.250 -0.143 16.260 -0.050 16.270  0.040 16.280  0.060 16.290  0.007
 16.300 -0.080 16.310 -0.151 16.320 -0.144 16.330 -0.082 16.340  0.016
 16.350  0.150 16.360  0.195 16.370  0.187 16.380  0.158 16.390  0.129
 16.400  0.132 16.410  0.150 16.420  0.133 16.430  0.103 16.440  0.052
 16.450  0.024 16.460 -0.005 16.470 -0.004 16.480  0.025 16.490  0.053
 16.500  0.060 16.510  0.031 16.520 -0.011 16.530 -0.030 16.540 -0.028
 16.550  0.010 16.560  0.052 16.570  0.060 16.580  0.026 16.590 -0.020
 16.600 -0.066 16.610 -0.098 16.620 -0.098 16.630 -0.084 16.640 -0.075
 16.650 -0.080 16.660 -0.120 16.670 -0.177 16.680 -0.233 16.690 -0.219
 16.700 -0.161 16.710 -0.103 16.720 -0.072 16.730 -0.023 16.740  0.063
 16.750  0.105 16.760  0.134 16.770  0.150 16.780  0.131 16.790  0.079
 16.800  0.060 16.810  0.075 16.820  0.082 16.830  0.082 16.840  0.082
 16.850  0.064 16.860  0.037 16.870  0.053 16.880  0.097 16.890  0.105
 16.900  0.073 16.910  0.026 16.920  0.015 16.930  0.038 16.940  0.052
 16.950  0.024 16.960 -0.045 16.970 -0.102 16.980 -0.130 16.990 -0.143
 17.000 -0.143 17.010 -0.114 17.020 -0.098 17.030 -0.098 17.040 -0.095
 17.050 -0.057 17.060  0.000 17.070 -0.007 17.080 -0.064 17.090 -0.098
 17.100 -0.062 17.110 -0.004 17.120  0.045 17.130  0.060 17.140  0.060
 17.150  0.028 17.160 -0.030 17.170 -0.053 17.180 -0.007 17.190  0.022
 17.200  0.037 17.210  0.017 17.220 -0.012 17.230 -0.030 17.240 -0.014
 17.250  0.015 17.260  0.072 17.270  0.117 17.280  0.146 17.290  0.150
 17.300  0.141 17.310  0.112 17.320  0.061 17.330 -0.002 17.340 -0.088
 17.350 -0.121 17.360 -0.049 17.370  0.000 17.380  0.000 17.390 -0.008
 17.400 -0.030 17.410 -0.020 17.420  0.026 17.430  0.106 17.440  0.113
 17.450  0.055 17.460 -0.003 17.470 -0.030 17.480 -0.030 17.490 -0.014
 17.500  0.015 17.510  0.021 17.520  0.025 17.530 -0.004 17.540 -0.008
 17.550 -0.008 17.560 -0.023 17.570 -0.052 17.580 -0.075 17.590 -0.064
 17.600 -0.035 17.610 -0.053 17.620 -0.045 17.630 -0.002 17.640  0.056
 17.650  0.055 17.660  0.026 17.670 -0.003 17.680 -0.008 17.690 -0.001
 17.700  0.028 17.710  0.077 17.720  0.082 17.730  0.072 17.740  0.043
 17.750 -0.008 17.760 -0.030 17.770 -0.043 17.780 -0.072 17.790 -0.098
 17.800 -0.089 17.810 -0.060 17.820 -0.031 17.830  0.025 17.840  0.083
 17.850  0.105 17.860  0.103 17.870  0.066 17.880  0.037 17.890  0.037
 17.900  0.064 17.910  0.061 17.920  0.003 17.930 -0.078 17.940 -0.157
 17.950 -0.202 17.960 -0.191 17.970 -0.132 17.980 -0.056 17.990  0.002
 18.000  0.037 18.010  0.025 18.020 -0.033 18.030 -0.091 18.040 -0.121
 18.050 -0.103 18.060 -0.030 18.070  0.014 18.080  0.026 18.090 -0.008
 18.100  0.028 18.110  0.084 18.120  0.097 18.130  0.082 18.140  0.082
 18.150  0.060 18.160  0.038 18.170 -0.003 18.180 -0.054 18.190 -0.061
 18.200 -0.003 18.210  0.034 18.220  0.060 18.230  0.060 18.240  0.043
 18.250 -0.008 18.260 -0.037 18.270 -0.053 18.280 -0.015 18.290  0.037
 18.300  0.037 18.310  0.037 18.320  0.037 18.330  0.060 18.340  0.071
 18.350  0.100 18.360  0.080 18.370  0.043 18.380  0.000 18.390 -0.029
 18.400 -0.084 18.410 -0.142 18.420 -0.166 18.430 -0.141 18.440 -0.091
 18.450 -0.048 18.460  0.009 18.470  0.060 18.480  0.040 18.490  0.015
 18.500  0.037 18.510  0.095 18.520  0.140 18.530  0.131 18.540  0.102
 18.550  0.064 18.560  0.022 18.570 -0.007 18.580  0.020 18.590  0.061
 18.600  0.100 18.610  0.129 18.620  0.142 18.630  0.098 18.640  0.041
 18.650 -0.039 18.660 -0.097 18.670 -0.138 18.680 -0.120 18.690 -0.091
 18.700 -0.075 18.710 -0.075 18.720 -0.053 18.730 -0.043 18.740 -0.030
 18.750 -0.053 18.760 -0.088 18.770 -0.146 18.780 -0.166 18.790 -0.115
 18.800 -0.057 18.810  0.000 18.820  0.036 18.830  0.098 18.840  0.161
 18.850  0.154 18.860  0.103 18.870  0.074 18.880  0.031 18.890 -0.027
 18.900 -0.062 18.910 -0.098 18.920 -0.115 18.930 -0.098 18.940 -0.098
 18.950 -0.084 18.960 -0.075 18.970 -0.072 18.980 -0.053 18.990 -0.053
 19.000 -0.030 19.010 -0.030 19.020 -0.030 19.030 -0.049 19.040 -0.053
 19.050 -0.053 19.060 -0.053 19.070 -0.031 19.080 -0.025 19.090 -0.020
 19.100 -0.048 19.110 -0.027 19.120  0.039 19.130  0.111 19.140  0.148
 19.150  0.150 19.160  0.139 19.170  0.093 19.180  0.060 19.190  0.052
 19.200  0.024 19.210 -0.005 19.220  0.018 19.230  0.057 19.240  0.098
 19.250  0.105 19.260  0.070 19.270  0.012 19.280 -0.027 19.290 -0.025
 19.300  0.015 19.310  0.030 19.320  0.059 19.330  0.088 19.340  0.105
 19.350  0.105 19.360  0.080 19.370  0.052 19.380  0.008 19.390 -0.029
 19.400 -0.062 19.410 -0.098 19.420 -0.081 19.430 -0.075 19.440 -0.053
 19.450 -0.039 19.460 -0.011 19.470  0.044 19.480  0.102 19.490  0.111
 19.500  0.060 19.510  0.002 19.520 -0.068 19.530 -0.136 19.540 -0.160
 19.550 -0.103 19.560 -0.045 19.570 -0.009 19.580 -0.041 19.590 -0.099
 19.600 -0.121 19.610 -0.094 19.620 -0.029 19.630  0.058 19.640  0.124
 19.650  0.118 19.660  0.050 19.670 -0.003 19.680 -0.053 19.690 -0.046
 19.700 -0.030 19.710 -0.011 19.720  0.018 19.730  0.047 19.740  0.060
 19.750  0.060 19.760  0.002 19.770 -0.056 19.780 -0.094 19.790 -0.073
 19.800 -0.053 19.810 -0.084 19.820 -0.163 19.830 -0.160 19.840 -0.131
 19.850 -0.084 19.860 -0.049 19.870  0.000 19.880  0.015 19.890  0.035
 19.900  0.064 19.910  0.082 19.920  0.082 19.930  0.059 19.940  0.030
 19.950  0.001 19.960 -0.008 19.970  0.018 19.980  0.037 19.990  0.037
 20.000  0.037 20.010  0.043 20.020  0.060 20.030  0.041 20.040  0.015
 20.050  0.024 20.060  0.037 20.070  0.037 20.080  0.026 20.090 -0.031
 20.100 -0.089 20.110 -0.074 20.120 -0.045 20.130 -0.002 20.140  0.035
 20.150  0.087 20.160  0.094 20.170  0.082 20.180  0.058 20.190  0.000
 20.200 -0.044 20.210 -0.053 20.220 -0.027 20.230  0.002 20.240  0.015
 20.250  0.037 20.260  0.015 20.270  0.015 20.280  0.034 20.290  0.062
 20.300  0.082 20.310  0.052 20.320  0.037 20.330  0.037 20.340  0.025
 20.350  0.015 20.360 -0.012 20.370 -0.053 20.380 -0.039 20.390  0.011
 20.400  0.060 20.410  0.049 20.420  0.003 20.430 -0.054 20.440 -0.083
 20.450 -0.084 20.460 -0.056 20.470 -0.023 20.480  0.025 20.490  0.053
 20.500  0.060 20.510  0.018 20.520 -0.043 20.530 -0.091 20.540 -0.121
 20.550 -0.112 20.560 -0.083 20.570 -0.075 20.580 -0.053 20.590 -0.053
 20.600 -0.035 20.610 -0.030 20.620 -0.030 20.630 -0.045 20.640 -0.074
 20.650 -0.048 20.660 -0.020 20.670  0.026 20.680  0.037 20.690  0.023
 20.700 -0.021 20.710 -0.011 20.720  0.044 20.730  0.092 20.740  0.105
 20.750  0.082 20.760  0.053 20.770  0.025 20.780  0.015 20.790  0.040
 20.800  0.069 20.810  0.082 20.820  0.082 20.830  0.082 20.840  0.059
 20.850  0.019 20.860 -0.010 20.870 -0.022 20.880 -0.008 20.890  0.013
 20.900  0.033 20.910  0.015 20.920  0.032 20.930  0.037 20.940  0.023
 20.950 -0.035 20.960 -0.053 20.970 -0.053 20.980 -0.053 20.990 -0.053
 21.000 -0.030 21.010 -0.024 21.020 -0.008 21.030  0.011 21.040  0.015
 21.050  0.024 21.060  0.052 21.070  0.060 21.080  0.032 21.090  0.003
 21.100 -0.026 21.110 -0.032 21.120 -0.053 21.130 -0.053 21.140 -0.053
 21.150 -0.030 21.160 -0.030 21.170 -0.030 21.180 -0.030 21.190 -0.015
 21.200 -0.030 21.210 -0.050 21.220 -0.027 21.230 -0.008 21.240 -0.008
 21.250 -0.008 21.260  0.021 21.270  0.037 21.280  0.037 21.290  0.009
 21.300 -0.021 21.310 -0.008 21.320  0.014 21.330  0.065 21.340  0.082
 21.350  0.082 21.360  0.035 21.370  0.007 21.380 -0.008 21.390  0.013
 21.400  0.019 21.410  0.037 21.420  0.037 21.430  0.036 21.440  0.015
 21.450  0.015 21.460 -0.005 21.470 -0.008 21.480 -0.008 21.490 -0.008
 21.500 -0.030 21.510 -0.053 21.520 -0.053 21.530 -0.072 21.540 -0.095
 21.550 -0.066 21.560 -0.022 21.570 -0.008 21.580 -0.013 21.590 -0.030
 21.600 -0.030 21.610 -0.008 21.620 -0.008 21.630 -0.008 21.640  0.013
 21.650  0.037 21.660  0.026 21.670  0.015 21.680  0.061 21.690  0.097
 21.700  0.127 21.710  0.107 21.720  0.101 21.730  0.082 21.740  0.050
 21.750  0.015 21.760 -0.014 21.770 -0.043 21.780 -0.053 21.790 -0.053
 21.800 -0.062 21.810 -0.091 21.820 -0.098 21.830 -0.042 21.840  0.004
 21.850  0.033 21.860  0.035 21.870  0.015 21.880  0.029 21.890  0.058
 21.900  0.082 21.910  0.093 21.920  0.088 21.930  0.082 21.940  0.082
 21.950  0.069 21.960  0.040 21.970 -0.012 21.980 -0.040 21.990 -0.053
 22.000 -0.008 22.010  0.015 22.020  0.002 22.030 -0.027 22.040 -0.078
 22.050 -0.116 22.060 -0.143 22.070 -0.100 22.080 -0.075 22.090 -0.075
 22.100 -0.075 22.110 -0.049 22.120  0.008 22.130  0.052 22.140  0.060
 22.150  0.033 22.160  0.015 22.170  0.015 22.180  0.014 22.190 -0.015
 22.200 -0.044 22.210 -0.053 22.220 -0.053 22.230 -0.033 22.240  0.008
 22.250  0.037 22.260  0.031 22.270  0.002 22.280 -0.008 22.290 -0.005
 22.300  0.015 22.310  0.015 22.320  0.015 22.330  0.020 22.340  0.037
 22.350  0.037 22.360  0.013 22.370 -0.008 22.380 -0.008 22.390 -0.008
 22.400 -0.053 22.410 -0.042 22.420  0.004 22.430  0.061 22.440  0.082
 22.450  0.069 22.460  0.060 22.470  0.056 22.480  0.027 22.490 -0.002
 22.500  0.015 22.510  0.043 22.520  0.060 22.530  0.041 22.540  0.012
 22.550 -0.008 22.560  0.007 22.570 -0.007 22.580 -0.003 22.590  0.003
 22.600 -0.008 22.610 -0.030 22.620 -0.039 22.630 -0.053 22.640 -0.053
 22.650 -0.075 22.660 -0.065 22.670 -0.053 22.680 -0.053 22.690 -0.053
 22.700 -0.066 22.710 -0.075 22.720 -0.068 22.730 -0.030 22.740 -0.030
 22.750 -0.030 22.760 -0.024 22.770 -0.008 22.780 -0.008 22.790 -0.005
 22.800  0.024 22.810  0.037 22.820  0.059 22.830  0.054 22.840  0.025
 22.850 -0.003 22.860 -0.030 22.870 -0.030 22.880 -0.030 22.890 -0.010
 22.900  0.042 22.910  0.060 22.920  0.060 22.930  0.059 22.940  0.030
 22.950  0.001 22.960 -0.008 22.970  0.018 22.980  0.047 22.990  0.043
 23.000  0.037 23.010  0.037 23.020  0.037 23.030 -0.001 23.040 -0.053
 23.050 -0.053 23.060 -0.022 23.070  0.035 23.080  0.060 23.090  0.060
 23.100  0.060 23.110  0.060 23.120  0.052 23.130  0.037 23.140  0.058
 23.150  0.028 23.160 -0.030 23.170 -0.070 23.180 -0.075 23.190 -0.075
 23.200 -0.089 23.210 -0.138 23.220 -0.139 23.230 -0.101 23.240 -0.043
 23.250 -0.008 23.260 -0.008 23.270 -0.021 23.280 -0.049 23.290 -0.050
 23.300 -0.021 23.310  0.007 23.320  0.058 23.330  0.093 23.340  0.127
 23.350  0.109 23.360  0.058 23.370  0.037 23.380  0.052 23.390  0.060
 23.400  0.037 23.410  0.026 23.420 -0.020 23.430 -0.054 23.440 -0.061
 23.450 -0.017 23.460  0.012 23.470  0.015 23.480  0.015 23.490  0.015
 23.500  0.060 23.510  0.088 23.520  0.092 23.530  0.044 23.540  0.012
 23.550 -0.017 23.560 -0.046 23.570 -0.053 23.580 -0.053 23.590 -0.053
 23.600 -0.035 23.610 -0.006 23.620  0.007 23.630 -0.022 23.640 -0.072
 23.650 -0.103 23.660 -0.121 23.670 -0.103 23.680 -0.052 23.690 -0.023
 23.700  0.006 23.710  0.034 23.720  0.063 23.730  0.082 23.740  0.066
 23.750  0.082 23.760  0.105 23.770  0.092 23.780  0.063 23.790  0.034
 23.800  0.006 23.810 -0.039 23.820 -0.075 23.830 -0.093 23.840 -0.064
 23.850 -0.035 23.860 -0.032 23.870 -0.069 23.880 -0.112 23.890 -0.100
 23.900 -0.071 23.910 -0.053 23.920 -0.070 23.930 -0.074 23.940 -0.016
 23.950  0.015 23.960 -0.005 23.970 -0.012 23.980 -0.040 23.990 -0.037
 24.000  0.015 24.010  0.043 24.020  0.072 24.030  0.082 24.040  0.054
 24.050  0.006 24.060 -0.023 24.070 -0.030 24.080  0.025 24.090  0.083
 24.100  0.141 24.110  0.172 24.120  0.156 24.130  0.113 24.140  0.084
 24.150  0.060 24.160  0.060 24.170  0.077 24.180  0.082 24.190  0.082
 24.200  0.069 24.210  0.060 24.220  0.060 24.230  0.050 24.240  0.037
 24.250  0.037 24.260  0.015 24.270  0.027 24.280  0.018 24.290 -0.008
 24.300 -0.008 24.310 -0.008 24.320 -0.008 24.330  0.015 24.340  0.026
 24.350  0.037 24.360  0.035 24.370  0.007 24.380 -0.037 24.390 -0.053
 24.400 -0.075 24.410 -0.075 24.420 -0.058 24.430 -0.053 24.440 -0.053
 24.450 -0.053 24.460 -0.053 24.470 -0.057 24.480 -0.075 24.490 -0.092
 24.500 -0.121 24.510 -0.114 24.520 -0.085 24.530 -0.057 24.540 -0.053
 24.550 -0.044 24.560 -0.015 24.570 -0.030 24.580 -0.058 24.590 -0.064
 24.600 -0.035 24.610 -0.006 24.620  0.015 24.630  0.029 24.640  0.058
 24.650  0.055 24.660  0.037 24.670  0.054 24.680  0.060 24.690  0.052
 24.700  0.037 24.710  0.037 24.720  0.041 24.730  0.050 24.740  0.021
 24.750  0.015 24.760  0.015 24.770  0.015 24.780  0.034 24.790  0.034
 24.800  0.015 24.810 -0.001 24.820 -0.008 24.830 -0.003 24.840  0.015
 24.850  0.015 24.860  0.015 24.870  0.007 24.880 -0.022 24.890 -0.030
 24.900 -0.053 24.910 -0.053 24.920 -0.036 24.930 -0.009 24.940 -0.038
 24.950 -0.053 24.960 -0.053 24.970 -0.053 24.980 -0.063 24.990 -0.092
 25.000 -0.098 25.010 -0.085 25.020 -0.040 25.030 -0.012 25.040 -0.008
 25.050  0.001 25.060  0.030 25.070  0.080 25.080  0.105 25.090  0.105
 25.100  0.105 25.110  0.082 25.120  0.074 25.130  0.060 25.140  0.039
 25.150  0.033 25.160  0.004 25.170 -0.008 25.180 -0.008 25.190  0.007
 25.200  0.051 25.210  0.079 25.220  0.060 25.230  0.050 25.240  0.021
 25.250  0.015 25.260 -0.008 25.270 -0.008 25.280 -0.008 25.290  0.017
 25.300  0.028 25.310 -0.001 25.320 -0.051 25.330 -0.058 25.340 -0.064
 25.350 -0.035 25.360 -0.030 25.370 -0.039 25.380 -0.053 25.390 -0.053
 25.400 -0.053 25.410 -0.053 25.420 -0.053 25.430 -0.030 25.440 -0.030
 25.450 -0.030 25.460 -0.030 25.470 -0.004 25.480  0.015 25.490  0.015
 25.500  0.015 25.510  0.021 25.520  0.050 25.530  0.060 25.540  0.034
 25.550  0.006 25.560 -0.008 25.570 -0.008 25.580  0.015 25.590  0.015
 25.600 -0.003 25.610 -0.006 25.620  0.023 25.630  0.052 25.640  0.080
 25.650  0.060 25.660  0.060 25.670  0.043 25.680  0.014 25.690 -0.015
 25.700 -0.017 25.710  0.012 25.720  0.007 25.730 -0.050 25.740 -0.075
 25.750 -0.075 25.760 -0.069 25.770 -0.040 25.780 -0.012 25.790 -0.011
 25.800 -0.030 25.810 -0.046 25.820 -0.053 25.830 -0.053 25.840 -0.053
 25.850 -0.053 25.860 -0.032 25.870 -0.045 25.880 -0.030 25.890 -0.030
 25.900 -0.008 25.910 -0.008 25.920 -0.008 25.930  0.014 25.940 -0.022
 25.950 -0.066 25.960 -0.075 25.970 -0.072 25.980 -0.043 25.990  0.002
 26.000  0.037 26.010  0.037 26.020  0.037 26.030  0.075 26.040  0.079
 26.050  0.060 26.060  0.060 26.070  0.060 26.080  0.032 26.090  0.015
 26.100 -0.003 26.110 -0.006 26.120  0.015 26.130  0.029 26.140  0.037
 26.150  0.037 26.160  0.037 26.170  0.037 26.180  0.036 26.190  0.015
 26.200  0.001 26.210 -0.008 26.220 -0.012 26.230 -0.040 26.240 -0.053
 26.250 -0.008 26.260  0.015 26.270  0.002 26.280 -0.027 26.290 -0.050
 26.300 -0.021 26.310 -0.008 26.320 -0.008 26.330 -0.003 26.340  0.015
 26.350  0.015 26.360 -0.008 26.370 -0.016 26.380 -0.045 26.390 -0.053
 26.400 -0.026 26.410 -0.008 26.420 -0.025 26.430 -0.030 26.440 -0.030
 26.450 -0.030 26.460 -0.050 26.470 -0.049 26.480 -0.021 26.490  0.008
 26.500  0.037 26.510  0.060 26.520  0.072 26.530  0.082 26.540  0.062
 26.550  0.091 26.560  0.105 26.570  0.105 26.580  0.099 26.590  0.070
 26.600  0.042 26.610  0.037 26.620  0.037 26.630  0.037 26.640  0.016
 26.650  0.015 26.660  0.025 26.670  0.037 26.680  0.036 26.690  0.015
 26.700  0.001 26.710 -0.008 26.720 -0.012 26.730 -0.030 26.740 -0.030
 26.750 -0.030 26.760 -0.053 26.770 -0.053 26.780 -0.053 26.790 -0.053
 26.800 -0.044 26.810 -0.015 26.820 -0.008 26.830 -0.008 26.840 -0.008
 26.850 -0.008 26.860 -0.010 26.870 -0.039 26.880 -0.067 26.890 -0.055
 26.900 -0.021 26.910  0.036 26.920  0.060 26.930  0.036 26.940 -0.007
 26.950 -0.066 26.960 -0.075 26.970 -0.049 26.980 -0.021 26.990 -0.008
 27.000  0.015 27.010 -0.008 27.020 -0.021 27.030 -0.012 27.040  0.017
 27.050  0.046 27.060  0.044 27.070  0.016 27.080 -0.008 27.090  0.004
 27.100  0.015 27.110  0.037 27.120  0.045 27.130  0.060 27.140  0.060
 27.150  0.082 27.160  0.071 27.170  0.043 27.180  0.015 27.190  0.007
 27.200 -0.021 27.210 -0.050 27.220 -0.053 27.230 -0.043 27.240 -0.030
 27.250 -0.030 27.260 -0.053 27.270 -0.040 27.280 -0.012 27.290 -0.008
 27.300 -0.017 27.310 -0.030 27.320 -0.052 27.330 -0.053 27.340 -0.041
 27.350 -0.012 27.360  0.015 27.370  0.015 27.380  0.015 27.390 -0.006
 27.400 -0.012 27.410 -0.009 27.420  0.015 27.430  0.015 27.440  0.015
 27.450  0.001 27.460  0.012 27.470  0.018 27.480  0.037 27.490  0.037
 27.500  0.037 27.510  0.043 27.520  0.060 27.530  0.041 27.540  0.060
 27.550  0.060 27.560  0.060 27.570  0.060 27.580  0.054 27.590  0.025
 27.600 -0.021 27.610 -0.030 27.620 -0.030 27.630 -0.016 27.640 -0.008
 27.650  0.015 27.660  0.015 27.670 -0.003 27.680 -0.030 27.690 -0.023
 27.700 -0.008 27.710 -0.008 27.720 -0.012 27.730 -0.030 27.740 -0.014
 27.750 -0.008 27.760  0.008 27.770 -0.008 27.780 -0.027 27.790 -0.008
 27.800 -0.008 27.810 -0.023 27.820 -0.030 27.830 -0.030 27.840 -0.019
 27.850  0.010 27.860  0.037 27.870  0.029 27.880  0.000 27.890 -0.008
 27.900 -0.017 27.910 -0.064 27.920 -0.058 27.930 -0.030 27.940 -0.008
 27.950 -0.021 27.960 -0.030 27.970 -0.027 27.980 -0.008 27.990 -0.008
 28.000 -0.008 28.010 -0.008 28.020 -0.021 28.030 -0.030 28.040 -0.005
 28.050  0.015 28.060 -0.001 28.070 -0.008 28.080 -0.003 28.090  0.026
 28.100  0.055 28.110  0.058 28.120  0.037 28.130  0.023 28.140  0.015
 28.150  0.010 28.160 -0.008 28.170 -0.008 28.180  0.015 28.190  0.015
 28.200  0.015 28.210  0.015 28.220 -0.004 28.230  0.015 28.240  0.031
 28.250  0.037 28.260  0.031 28.270  0.002 28.280 -0.008 28.290 -0.008
 28.300 -0.008 28.310 -0.008 28.320 -0.008 28.330 -0.008 28.340 -0.008
 28.350 -0.008 28.360 -0.010 28.370 -0.030 28.380 -0.030 28.390 -0.051
 28.400 -0.053 28.410 -0.053 28.420 -0.036 28.430  0.015 28.440  0.007
 28.450 -0.008 28.460 -0.028 28.470 -0.057 28.480 -0.066 28.490 -0.053
 28.500 -0.008 28.510  0.005 28.520  0.037 28.530  0.037 28.540  0.012
 28.550 -0.008 28.560 -0.023 28.570 -0.030 28.580 -0.025 28.590  0.016
 28.600  0.055 28.610  0.058 28.620  0.037 28.630  0.023 28.640  0.015
 28.650  0.015 28.660  0.015 28.670  0.015 28.680  0.015 28.690  0.015
 28.700  0.015 28.710  0.015 28.720  0.015 28.730  0.005 28.740 -0.024
 28.750 -0.053 28.760 -0.053 28.770 -0.040 28.780 -0.012 28.790 -0.011
 28.800 -0.030 28.810 -0.015 28.820  0.014 28.830  0.015 28.840  0.003
 28.850 -0.026 28.860 -0.053 28.870 -0.045 28.880 -0.016 28.890  0.013
 28.900  0.019 28.910  0.048 28.920  0.060 28.930  0.060 28.940  0.045
 28.950  0.001 28.960 -0.008 28.970 -0.012 28.980 -0.030 28.990 -0.030
 29.000 -0.030 29.010 -0.030 29.020 -0.030 29.030 -0.030 29.040 -0.033
 29.050 -0.044 29.060 -0.015 29.070  0.014 29.080  0.037 29.090  0.049
 29.100  0.042 29.110  0.035 29.120  0.015 29.130  0.015 29.140  0.015
 29.150  0.015 29.160  0.015 29.170  0.032 29.180  0.038 29.190  0.052
 29.200  0.037 29.210  0.017 29.220 -0.008 29.230 -0.018 29.240 -0.030
 29.250 -0.030 29.260 -0.037 29.270 -0.053 29.280 -0.053 29.290 -0.073
 29.300 -0.053 29.310 -0.038 29.320 -0.009 29.330  0.015 29.340  0.015
 29.350 -0.003 29.360  0.015 29.370  0.007 29.380 -0.008 29.390 -0.029
 29.400 -0.048 29.410 -0.030 29.420 -0.030 29.430 -0.007 29.440  0.029
 29.450  0.060 29.460  0.060 29.470  0.034 29.480  0.015 29.490  0.015
 29.500  0.015 29.510  0.015 29.520  0.015 29.530  0.015 29.540  0.015
 29.550  0.015 29.560 -0.001 29.570 -0.008 29.580 -0.008 29.590 -0.008
 29.600  0.010 29.610  0.013 29.620 -0.008 29.630 -0.008 29.640  0.013
 29.650  0.037 29.660  0.037 29.670  0.020 29.680  0.014 29.690 -0.001
 29.700  0.028 29.710  0.037 29.720  0.060 29.730  0.060 29.740  0.027
 29.750  0.015 29.760 -0.008 29.770 -0.008 29.780 -0.008 29.790  0.017
 29.800  0.037 29.810  0.037 29.820  0.037 29.830  0.004 29.840 -0.030
 29.850 -0.048 29.860 -0.055 29.870 -0.075 29.880 -0.061 29.890 -0.032
 29.900 -0.026 29.910  0.003 29.920  0.015 29.930  0.014 29.940 -0.008
 29.950 -0.008 29.960  0.012 29.970  0.015 29.980  0.015 29.990 -0.002
 30.000 -0.008 30.010 -0.008 30.020 -0.008 30.030 -0.008 30.040 -0.003
 30.050  0.046 30.060  0.029 30.070 -0.007 30.080 -0.058 30.090 -0.075
 30.100 -0.057 30.110 -0.004 30.120  0.045 30.130  0.060 30.140  0.060
 30.150  0.055 30.160  0.026 30.170  0.032 30.180  0.037 30.190  0.044
 30.200  0.060 30.210  0.040 30.220  0.034 30.230  0.015 30.240 -0.002
 30.250 -0.008 30.260 -0.014 30.270 -0.018 30.280  0.011 30.290  0.015
 30.300  0.015 30.310  0.015 30.320  0.036 30.330  0.015 30.340  0.015
 30.350  0.015 30.360 -0.030 30.370 -0.030 30.380 -0.030 30.390 -0.010
 30.400 -0.003 30.410  0.015 30.420  0.015 30.430 -0.008 30.440 -0.015
 30.450 -0.030 30.460 -0.011 30.470 -0.008 30.480 -0.018 30.490 -0.014
 30.500 -0.008 30.510 -0.030 30.520 -0.030 30.530 -0.030 30.540 -0.030
 30.550 -0.039 30.560 -0.038 30.570 -0.009 30.580 -0.013 30.590 -0.030
 30.600 -0.048 30.610 -0.053 30.620 -0.053 30.630 -0.067 30.640 -0.075
 30.650 -0.048 30.660 -0.030 30.670 -0.030 30.680 -0.008 30.690 -0.001
 30.700  0.015 30.710  0.015 30.720  0.011 30.730 -0.008 30.740 -0.008
 30.750 -0.008 30.760 -0.014 30.770 -0.030 30.780 -0.030 30.790 -0.030
 30.800 -0.030 30.810 -0.046 30.820 -0.053 30.830 -0.025 30.840  0.004
 30.850  0.033 30.860  0.039 30.870  0.060 30.880  0.060 30.890  0.039
 30.900  0.015 30.910  0.015 30.920  0.015 30.930  0.016 30.940  0.030
 30.950  0.028 30.960  0.037 30.970  0.041 30.980  0.060 30.990  0.043
 31.000  0.037 31.010  0.015 31.020  0.015 31.030  0.015 31.040  0.017
 31.050  0.037 31.060  0.037 31.070  0.016 31.080  0.015 31.090  0.015
 31.100  0.015 31.110  0.015 31.120  0.007 31.130 -0.008 31.140 -0.008
 31.150 -0.030 31.160 -0.041 31.170 -0.070 31.180 -0.075 31.190 -0.046
 31.200 -0.017 31.210  0.032 31.220  0.037 31.230  0.027 31.240  0.015
 31.250 -0.008 31.260  0.015 31.270  0.015 31.280  0.015 31.290  0.012
 31.300 -0.008 31.310 -0.008 31.320  0.014 31.330  0.037 31.340  0.037
 31.350  0.055 31.360  0.037 31.370  0.021 31.380 -0.022 31.390 -0.072
 31.400 -0.071 31.410 -0.053 31.420 -0.053 31.430 -0.053 31.440 -0.046
 31.450 -0.017 31.460 -0.028 31.470 -0.030 31.480 -0.030 31.490 -0.014
 31.500 -0.008 31.510 -0.008 31.520 -0.008 31.530 -0.008 31.540 -0.008
 31.550 -0.017 31.560 -0.030 31.570 -0.030 31.580 -0.036 31.590 -0.053
 31.600 -0.053 31.610 -0.032 31.620 -0.053 31.630 -0.053 31.640 -0.032
 31.650 -0.003 31.660  0.015 31.670  0.015 31.680  0.014 31.690 -0.008
 31.700 -0.008 31.710 -0.008 31.720 -0.004 31.730  0.015 31.740  0.015
 31.750  0.015 31.760  0.037 31.770  0.050 31.780  0.060 31.790  0.034
 31.800  0.015 31.810  0.015 31.820  0.015 31.830  0.043 31.840  0.048
 31.850  0.037 31.860  0.060 31.870  0.060 31.880  0.045 31.890  0.037
 31.900  0.033 31.910  0.015 31.920  0.015 31.930  0.037 31.940  0.037
 31.950  0.037 31.960  0.017 31.970  0.015 31.980  0.015 31.990  0.015
 32.000  0.015 32.010 -0.008 32.020 -0.021 32.030 -0.049 32.040 -0.053
 32.050 -0.044 32.060 -0.015 32.070  0.014 32.080  0.020 32.090  0.025
 32.100  0.015 32.110  0.013 32.120 -0.008 32.130 -0.008 32.140 -0.008
 32.150 -0.030 32.160 -0.030 32.170 -0.030 32.180 -0.052 32.190 -0.023
 32.200  0.006 32.210  0.015 32.220 -0.004 32.230  0.015 32.240  0.031
 32.250  0.037 32.260  0.037 32.270  0.037 32.280  0.037 32.290  0.015
 32.300  0.006 32.310 -0.008 32.320 -0.008 32.330 -0.008 32.340 -0.008
 32.350 -0.008 32.360 -0.030 32.370 -0.030 32.380 -0.030 32.390 -0.030
 32.400  0.015 32.410  0.025 32.420  0.037 32.430  0.059 32.440  0.037
 32.450  0.037 32.460  0.017 32.470 -0.008 32.480 -0.018 32.490 -0.030
 32.500 -0.008 32.510  0.031 32.520  0.002 32.530 -0.027 32.540 -0.030
 32.550 -0.039 32.560 -0.053 32.570 -0.053 32.580 -0.053 32.590 -0.041
 32.600 -0.030 32.610 -0.008 32.620  0.000 32.630  0.015 32.640  0.015
 32.650  0.010 32.660 -0.008 32.670 -0.025 32.680 -0.053 32.690 -0.039
 32.700  0.006 32.710  0.034 32.720  0.034 32.730  0.005 32.740 -0.008
 32.750 -0.030 32.760 -0.030 32.770 -0.018 32.780  0.011 32.790  0.037
 32.800  0.037 32.810  0.022 32.820  0.015 32.830  0.020 32.840  0.037
 32.850  0.037 32.860  0.037 32.870  0.037 32.880  0.037 32.890  0.016
 32.900 -0.008 32.910 -0.008 32.920 -0.008 32.930  0.015 32.940  0.007
 32.950 -0.008 32.960  0.012 32.970  0.011 32.980 -0.008 32.990 -0.024
 33.000 -0.030 33.010 -0.047 33.020 -0.030 33.030 -0.012 33.040  0.015
 33.050  0.015 33.060  0.015 33.070 -0.007 33.080 -0.030 33.090 -0.030
 33.100 -0.030 33.110 -0.008 33.120 -0.008 33.130 -0.008 33.140 -0.008
 33.150 -0.008 33.160 -0.008 33.170 -0.008 33.180 -0.008 33.190 -0.008
 33.200  0.006 33.210  0.034 33.220  0.037 33.230  0.037 33.240  0.037
 33.250  0.015 33.260  0.015 33.270  0.015 33.280  0.034 33.290  0.037
 33.300  0.037 33.310  0.037 33.320  0.037 33.330  0.009 33.340 -0.008
 33.350 -0.008 33.360  0.015 33.370  0.023 33.380  0.023 33.390  0.015
 33.400  0.015 33.410  0.015 33.420  0.015 33.430  0.015 33.440  0.022
 33.450  0.024 33.460  0.015 33.470  0.034 33.480  0.015 33.490 -0.002
 33.500 -0.030 33.510 -0.030 33.520 -0.030 33.530 -0.049 33.540 -0.053
 33.550 -0.053 33.560 -0.068 33.570 -0.054 33.580 -0.003 33.590  0.026
 33.600  0.037 33.610  0.013 33.620 -0.024 33.630 -0.053 33.640 -0.032
 33.650 -0.030 33.660 -0.030 33.670 -0.030 33.680 -0.030 33.690 -0.030
 33.700 -0.017 33.710 -0.008 33.720 -0.008 33.730 -0.008 33.740 -0.008
 33.750  0.015 33.760  0.015 33.770  0.015 33.780  0.015 33.790 -0.008
 33.800 -0.008 33.810  0.007 33.820 -0.007 33.830 -0.008 33.840 -0.020
 33.850 -0.012 33.860 -0.006 33.870  0.015 33.880  0.029 33.890  0.037
 33.900  0.037 33.910  0.048 33.920  0.060 33.930  0.059 33.940  0.030
 33.950  0.015 33.960  0.034 33.970  0.037 33.980  0.037 33.990  0.021
 34.000 -0.008 34.010 -0.008 34.020  0.005 34.030 -0.004 34.040 -0.008
 34.050 -0.008 34.060 -0.008 34.070  0.014 34.080 -0.013 34.090 -0.042
 34.100 -0.053 34.110 -0.053 34.120 -0.053 34.130 -0.039 34.140 -0.010
 34.150 -0.003 34.160  0.025 34.170  0.020 34.180 -0.008 34.190 -0.008
 34.200 -0.008 34.210  0.012 34.220  0.015 34.230  0.015 34.240  0.015
 34.250 -0.008 34.260 -0.008 34.270 -0.008 34.280 -0.008 34.290  0.015
 34.300  0.006 34.310 -0.008 34.320 -0.008 34.330  0.015 34.340  0.015
 34.350  0.015 34.360 -0.008 34.370  0.000 34.380  0.015 34.390  0.035
 34.400  0.037 34.410  0.037 34.420  0.020 34.430  0.015 34.440  0.015
 34.450  0.015 34.460  0.015 34.470  0.015 34.480  0.015 34.490 -0.002
 34.500 -0.008 34.510 -0.014 34.520 -0.030 34.530 -0.030 34.540 -0.028
 34.550  0.001 34.560  0.030 34.570  0.016 34.580  0.015 34.590  0.003
 34.600 -0.026 34.610 -0.055 34.620 -0.075 34.630 -0.061 34.640 -0.053
 34.650 -0.053 34.660 -0.042 34.670 -0.030 34.680 -0.053 34.690 -0.046
 34.700 -0.030 34.710 -0.011 34.720  0.015 34.730  0.015 34.740 -0.002
 34.750 -0.008 34.760 -0.030 34.770 -0.018 34.780 -0.008 34.790  0.015
 34.800  0.015 34.810  0.015 34.820  0.015 34.830  0.015 34.840  0.015
 34.850  0.015 34.860  0.015 34.870  0.015 34.880  0.000 34.890  0.013
 34.900  0.015 34.910  0.004 34.920 -0.008 34.930  0.015 34.940  0.015
 34.950  0.015 34.960  0.034 34.970  0.015 34.980  0.015 34.990  0.015
/&  ----------  END OF DATA FOR CHANNEL 3  ----------
