UNCORRECTED ACCELEROGRAM DATA              PROCESSED: 05/24/2011
MAULE 2010
02/27/2010 3:41:05 (GMT)                (ORIGIN: 02/27/2010 3:41:05 GMT)
                                   TRIGGER TIME: 2/27/2010 3:41:15.000 GMT
STATION NO.          0.000N    0.000E  QDR       S/N  675 (3  CHNS OF 3  AT STA)
VIÑA DEL MAR CENTRO S/N 675
CHAN  1: EW       (STA CHN:  1)               
UNIVERSIDAD DE CHILE - RENADIC
HYPOCENTER:   0.000N    0.000E  H=   0.0KM   ML= 0.00
INSTR PERIOD = 0.0391 SEC,  DAMPING =0.7000,  SENSITIVITY =1.250 VDC/G
NO. OF POINTS =   3500  RECORD LENGTH = 35.000 SEC
UNITS OF UNCOR ACCEL ARE SEC AND G/10.     MAX  = -0.036 G, AT  -6.490 SEC
RMS ACCEL OF COMPLETE RECORD = 0.009 G
    1    1    1    3    3    0    1    0    0    0    0    0    0    0    0    0
    0    0    0    0    0    0    0    0    0    0    0 3500   10   27   30    0
    0    0    0    0    0    0    0    0    0    0    0    0    0    0    0    0
    0    0    0    0    0    0    0    0    0    0    0    0    0    0    0    0
    0    0    0    0    0    0    0    0    0    0    0    0    0    0    0    0
    0    0    0    0    0    0    0    0    0    0    0    0    0    0    0    0
    0    0    0    0
     0.039     0.700    35.000     0.009     0.100     1.250    -0.036    -6.490
    25.575     0.000     0.000     0.000    10.000     0.000    10.000    10.000
     0.000     0.000     0.000     0.000     0.000     0.000     0.000     0.000
     0.000     0.000     0.000     0.000     0.000     0.000     0.000     0.000
     0.000     0.000     0.000     0.000     0.000     0.000     0.000     0.000
     0.000     0.000     0.000     0.000     0.000     0.000     0.000     0.000
     0.000     0.000
  0.000  0.037  0.010  0.060  0.020  0.060  0.030  0.080  0.040  0.086
  0.050  0.116  0.060  0.130  0.070  0.108  0.080  0.078  0.090  0.048
  0.100 -0.000  0.110 -0.035  0.120 -0.048  0.130 -0.018  0.140  0.012
  0.150  0.037  0.160  0.037  0.170  0.055  0.180  0.059  0.190  0.030
  0.200  0.014  0.210  0.014  0.220  0.010  0.230 -0.020  0.240 -0.033
  0.250 -0.033  0.260 -0.033  0.270 -0.020  0.280 -0.009  0.290  0.011
  0.300 -0.019  0.310 -0.064  0.320 -0.124  0.330 -0.155  0.340 -0.172
  0.350 -0.154  0.360 -0.124  0.370 -0.094  0.380 -0.079  0.390 -0.079
  0.400 -0.084  0.410 -0.102  0.420 -0.102  0.430 -0.102  0.440 -0.072
  0.450 -0.056  0.460 -0.036  0.470 -0.033  0.480 -0.022  0.490  0.007
  0.500  0.014  0.510  0.014  0.520  0.014  0.530  0.033  0.540  0.037
  0.550  0.046  0.560  0.092  0.570  0.151  0.580  0.177  0.590  0.177
  0.600  0.177  0.610  0.153  0.620  0.137  0.630  0.107  0.640  0.085
  0.650  0.111  0.660  0.152  0.670  0.177  0.680  0.200  0.690  0.200
  0.700  0.200  0.710  0.200  0.720  0.200  0.730  0.210  0.740  0.223
  0.750  0.246  0.760  0.240  0.770  0.223  0.780  0.223  0.790  0.241
  0.800  0.191  0.810  0.145  0.820  0.063  0.830  0.003  0.840 -0.045
  0.850 -0.075  0.860 -0.101  0.870 -0.071  0.880 -0.041  0.890 -0.033
  0.900 -0.037  0.910 -0.078  0.920 -0.120  0.930 -0.150  0.940 -0.180
  0.950 -0.223  0.960 -0.263  0.970 -0.292  0.980 -0.312  0.990 -0.312
  1.000 -0.289  1.010 -0.229  1.020 -0.182  1.030 -0.133  1.040 -0.097
  1.050 -0.047  1.060 -0.001  1.070  0.036  1.080  0.066  1.090  0.084
  1.100  0.065  1.110  0.037  1.120  0.029  1.130 -0.001  1.140 -0.052
  1.150 -0.084  1.160 -0.114  1.170 -0.143  1.180 -0.125  1.190 -0.095
  1.200 -0.079  1.210 -0.038  1.220 -0.006  1.230  0.034  1.240  0.060
  1.250  0.060  1.260  0.054  1.270  0.024  1.280  0.014  1.290 -0.007
  1.300  0.023  1.310  0.037  1.320  0.037  1.330  0.037  1.340  0.025
  1.350  0.014  1.360  0.016  1.370  0.037  1.380  0.037  1.390  0.037
  1.400  0.060  1.410  0.083  1.420  0.089  1.430  0.083  1.440  0.053
  1.450  0.023  1.460  0.034  1.470  0.037  1.480  0.037  1.490  0.054
  1.500  0.084  1.510  0.084  1.520  0.084  1.530  0.103  1.540  0.104
  1.550  0.074  1.560  0.044  1.570  0.015  1.580  0.008  1.590 -0.009
  1.600  0.009  1.610  0.014  1.620  0.014  1.630  0.029  1.640  0.058
  1.650  0.060  1.660  0.060  1.670  0.060  1.680  0.060  1.690  0.060
  1.700  0.060  1.710  0.040  1.720  0.010  1.730 -0.009  1.740  0.007
  1.750 -0.009  1.760 -0.033  1.770 -0.046  1.780 -0.056  1.790 -0.056
  1.800 -0.056  1.810 -0.056  1.820 -0.056  1.830 -0.050  1.840 -0.033
  1.850 -0.033  1.860 -0.009  1.870 -0.001  1.880  0.029  1.890  0.058
  1.900  0.111  1.910  0.130  1.920  0.130  1.930  0.105  1.940  0.045
  1.950 -0.014  1.960 -0.033  1.970 -0.079  1.980 -0.079  1.990 -0.063
  2.000 -0.033  2.010 -0.009  2.020  0.004  2.030  0.033  2.040  0.037
  2.050  0.046  2.060  0.060  2.070  0.105  2.080  0.107  2.090  0.107
  2.100  0.088  2.110  0.080  2.120  0.029  2.130 -0.001  2.140 -0.052
  2.150 -0.051  2.160 -0.022  2.170 -0.009  2.180 -0.009  2.190  0.014
  2.200  0.028  2.210  0.037  2.220  0.037  2.230  0.037  2.240  0.037
  2.250  0.037  2.260  0.044  2.270  0.073  2.280  0.084  2.290  0.055
  2.300  0.004  2.310 -0.009  2.320 -0.032  2.330 -0.062  2.340 -0.079
  2.350 -0.098  2.360 -0.079  2.370 -0.071  2.380 -0.041  2.390 -0.033
  2.400 -0.033  2.410 -0.033  2.420 -0.033  2.430 -0.033  2.440 -0.040
  2.450 -0.056  2.460 -0.056  2.470 -0.056  2.480 -0.056  2.490 -0.056
  2.500 -0.056  2.510 -0.003  2.520  0.027  2.530  0.057  2.540  0.084
  2.550  0.074  2.560  0.076  2.570  0.106  2.580  0.148  2.590  0.118
  2.600  0.070  2.610  0.033  2.620 -0.018  2.630 -0.048  2.640 -0.056
  2.650 -0.028  2.660  0.002  2.670  0.031  2.680  0.061  2.690  0.091
  2.700  0.121  2.710  0.130  2.720  0.126  2.730  0.086  2.740  0.044
  2.750  0.014  2.760 -0.009  2.770 -0.009  2.780 -0.029  2.790 -0.059
  2.800 -0.089  2.810 -0.134  2.820 -0.171  2.830 -0.172  2.840 -0.184
  2.850 -0.196  2.860 -0.170  2.870 -0.141  2.880 -0.111  2.890 -0.102
  2.900 -0.098  2.910 -0.079  2.920 -0.079  2.930 -0.078  2.940 -0.049
  2.950 -0.033  2.960 -0.012  2.970 -0.033  2.980 -0.033  2.990 -0.033
  3.000 -0.033  3.010 -0.039  3.020 -0.043  3.030 -0.033  3.040 -0.004
  3.050  0.056  3.060  0.115  3.070  0.175  3.080  0.200  3.090  0.200
  3.100  0.181  3.110  0.177  3.120  0.177  3.130  0.177  3.140  0.198
  3.150  0.200  3.160  0.200  3.170  0.182  3.180  0.152  3.190  0.123
  3.200  0.093  3.210  0.084  3.220  0.084  3.230  0.084  3.240  0.084
  3.250  0.107  3.260  0.137  3.270  0.153  3.280  0.153  3.290  0.130
  3.300  0.121  3.310  0.075  3.320  0.038  3.330  0.008  3.340 -0.022
  3.350 -0.033  3.360 -0.060  3.370 -0.119  3.380 -0.149  3.390 -0.149
  3.400 -0.126  3.410 -0.126  3.420 -0.126  3.430 -0.150  3.440 -0.180
  3.450 -0.209  3.460 -0.239  3.470 -0.269  3.480 -0.299  3.490 -0.329
  3.500 -0.335  3.510 -0.358  3.520 -0.345  3.530 -0.335  3.540 -0.335
  3.550 -0.335  3.560 -0.319  3.570 -0.267  3.580 -0.231  3.590 -0.171
  3.600 -0.130  3.610 -0.101  3.620 -0.079  3.630 -0.064  3.640 -0.056
  3.650 -0.033  3.660 -0.022  3.670 -0.009  3.680 -0.009  3.690 -0.009
  3.700  0.018  3.710  0.057  3.720  0.087  3.730  0.117  3.740  0.147
  3.750  0.153  3.760  0.177  3.770  0.190  3.780  0.200  3.790  0.203
  3.800  0.223  3.810  0.223  3.820  0.223  3.830  0.223  3.840  0.223
  3.850  0.204  3.860  0.173  3.870  0.122  3.880  0.077  3.890  0.039
  3.900  0.014  3.910  0.014  3.920 -0.004  3.930 -0.033  3.940 -0.040
  3.950 -0.056  3.960 -0.076  3.970 -0.102  3.980 -0.102  3.990 -0.119
  4.000 -0.126  4.010 -0.132  4.020 -0.149  4.030 -0.149  4.040 -0.175
  4.050 -0.205  4.060 -0.235  4.070 -0.242  4.080 -0.242  4.090 -0.230
  4.100 -0.200  4.110 -0.167  4.120 -0.094  4.130 -0.064  4.140 -0.056
  4.150 -0.079  4.160 -0.079  4.170 -0.079  4.180 -0.078  4.190 -0.056
  4.200 -0.070  4.210 -0.079  4.220 -0.056  4.230 -0.056  4.240 -0.056
  4.250 -0.056  4.260 -0.026  4.270  0.017  4.280  0.057  4.290  0.110
  4.300  0.139  4.310  0.153  4.320  0.153  4.330  0.130  4.340  0.130
  4.350  0.149  4.360  0.155  4.370  0.177  4.380  0.177  4.390  0.177
  4.400  0.158  4.410  0.177  4.420  0.194  4.430  0.201  4.440  0.223
  4.450  0.223  4.460  0.203  4.470  0.173  4.480  0.153  4.490  0.153
  4.500  0.153  4.510  0.124  4.520  0.094  4.530  0.044  4.540  0.014
  4.550 -0.005  4.560 -0.049  4.570 -0.101  4.580 -0.155  4.590 -0.196
  4.600 -0.237  4.610 -0.263  4.620 -0.242  4.630 -0.242  4.640 -0.221
  4.650 -0.196  4.660 -0.196  4.670 -0.196  4.680 -0.196  4.690 -0.188
  4.700 -0.144  4.710 -0.085  4.720 -0.029  4.730 -0.009  4.740 -0.009
  4.750 -0.033  4.760 -0.063  4.770 -0.092  4.780 -0.102  4.790 -0.100
  4.800 -0.070  4.810 -0.024  4.820  0.013  4.830  0.043  4.840  0.048
  4.850  0.056  4.860  0.058  4.870  0.037  4.880  0.052  4.890  0.082
  4.900  0.111  4.910  0.141  4.920  0.171  4.930  0.176  4.940  0.146
  4.950  0.130  4.960  0.130  4.970  0.111  4.980  0.130  4.990  0.130
  5.000  0.130  5.010  0.100  5.020  0.057  5.030  0.017  5.040 -0.012
  5.050 -0.042  5.060 -0.056  5.070 -0.078  5.080 -0.079  5.090 -0.079
  5.100 -0.079  5.110 -0.058  5.120 -0.071  5.130 -0.056  5.140 -0.056
  5.150 -0.061  5.160 -0.090  5.170 -0.120  5.180 -0.127  5.190 -0.142
  5.200 -0.126  5.210 -0.105  5.220 -0.102  5.230 -0.113  5.240 -0.142
  5.250 -0.149  5.260 -0.119  5.270 -0.076  5.280 -0.017  5.290  0.045
  5.300  0.116  5.310  0.146  5.320  0.176  5.330  0.165  5.340  0.118
  5.350  0.088  5.360  0.085  5.370  0.107  5.380  0.122  5.390  0.130
  5.400  0.130  5.410  0.130  5.420  0.130  5.430  0.154  5.440  0.177
  5.450  0.177  5.460  0.177  5.470  0.173  5.480  0.153  5.490  0.120
  5.500  0.084  5.510  0.031  5.520 -0.012  5.530 -0.052  5.540 -0.059
  5.550 -0.070  5.560 -0.040  5.570 -0.033  5.580 -0.033  5.590 -0.033
  5.600 -0.051  5.610 -0.079  5.620 -0.079  5.630 -0.094  5.640 -0.124
  5.650 -0.130  5.660 -0.160  5.670 -0.208  5.680 -0.242  5.690 -0.249
  5.700 -0.265  5.710 -0.245  5.720 -0.242  5.730 -0.232  5.740 -0.185
  5.750 -0.172  5.760 -0.149  5.770 -0.123  5.780 -0.083  5.790 -0.050
  5.800 -0.000  5.810  0.030  5.820  0.037  5.830  0.043  5.840  0.072
  5.850  0.102  5.860  0.132  5.870  0.162  5.880  0.191  5.890  0.200
  5.900  0.228  5.910  0.257  5.920  0.270  5.930  0.244  5.940  0.192
  5.950  0.149  5.960  0.130  5.970  0.107  5.980  0.107  5.990  0.124
  6.000  0.107  6.010  0.130  6.020  0.130  6.030  0.091  6.040  0.078
  6.050  0.028  6.060 -0.018  6.070 -0.055  6.080 -0.033  6.090 -0.033
  6.100 -0.014  6.110  0.037  6.120  0.037  6.130  0.022  6.140 -0.008
  6.150 -0.033  6.160 -0.044  6.170 -0.074  6.180 -0.102  6.190 -0.110
  6.200 -0.140  6.210 -0.169  6.220 -0.176  6.230 -0.196  6.240 -0.196
  6.250 -0.196  6.260 -0.196  6.270 -0.209  6.280 -0.219  6.290 -0.219
  6.300 -0.219  6.310 -0.219  6.320 -0.241  6.330 -0.242  6.340 -0.230
  6.350 -0.219  6.360 -0.170  6.370 -0.141  6.380 -0.096  6.390 -0.036
  6.400 -0.005  6.410  0.025  6.420  0.037  6.430  0.084  6.440  0.114
  6.450  0.116  6.460  0.107  6.470  0.080  6.480  0.050  6.490  0.037
  6.500  0.060  6.510  0.060  6.520  0.060  6.530  0.080  6.540  0.084
  6.550  0.093  6.560  0.123  6.570  0.152  6.580  0.148  6.590  0.130
  6.600  0.130  6.610  0.109  6.620  0.130  6.630  0.115  6.640  0.107
  6.650  0.084  6.660  0.084  6.670  0.084  6.680  0.084  6.690  0.076
  6.700  0.074  6.710  0.084  6.720  0.084  6.730  0.094  6.740  0.124
  6.750  0.153  6.760  0.130  6.770  0.117  6.780  0.068  6.790  0.011
  6.800 -0.019  6.810 -0.033  6.820 -0.055  6.830 -0.056  6.840 -0.068
  6.850 -0.079  6.860 -0.102  6.870 -0.111  6.880 -0.126  6.890 -0.147
  6.900 -0.149  6.910 -0.149  6.920 -0.149  6.930 -0.149  6.940 -0.149
  6.950 -0.149  6.960 -0.129  6.970 -0.122  6.980 -0.102  6.990 -0.102
  7.000 -0.079  7.010 -0.079  7.020 -0.079  7.030 -0.079  7.040 -0.102
  7.050 -0.102  7.060 -0.102  7.070 -0.080  7.080 -0.050  7.090 -0.021
  7.100  0.009  7.110  0.062  7.120  0.092  7.130  0.107  7.140  0.128
  7.150  0.130  7.160  0.119  7.170  0.107  7.180  0.131  7.190  0.153
  7.200  0.181  7.210  0.220  7.220  0.227  7.230  0.246  7.240  0.230
  7.250  0.200  7.260  0.164  7.270  0.130  7.280  0.111  7.290  0.084
  7.300  0.084  7.310  0.084  7.320  0.061  7.330  0.055  7.340  0.025
  7.350 -0.005  7.360 -0.058  7.370 -0.079  7.380 -0.079  7.390 -0.079
  7.400 -0.079  7.410 -0.079  7.420 -0.079  7.430 -0.080  7.440 -0.110
  7.450 -0.140  7.460 -0.169  7.470 -0.176  7.480 -0.196  7.490 -0.196
  7.500 -0.219  7.510 -0.212  7.520 -0.196  7.530 -0.196  7.540 -0.196
  7.550 -0.196  7.560 -0.196  7.570 -0.173  7.580 -0.167  7.590 -0.137
  7.600 -0.107  7.610 -0.101  7.620 -0.071  7.630 -0.041  7.640 -0.011
  7.650  0.023  7.660  0.071  7.670  0.119  7.680  0.178  7.690  0.231
  7.700  0.260  7.710  0.290  7.720  0.289  7.730  0.270  7.740  0.270
  7.750  0.270  7.760  0.270  7.770  0.257  7.780  0.227  7.790  0.177
  7.800  0.186  7.810  0.200  7.820  0.200  7.830  0.205  7.840  0.223
  7.850  0.204  7.860  0.175  7.870  0.137  7.880  0.077  7.890  0.039
  7.900  0.009  7.910 -0.032  7.920 -0.074  7.930 -0.104  7.940 -0.164
  7.950 -0.196  7.960 -0.216  7.970 -0.246  7.980 -0.276  7.990 -0.305
  8.000 -0.335  8.010 -0.335  8.020 -0.348  8.030 -0.339  8.040 -0.332
  8.050 -0.312  8.060 -0.296  8.070 -0.289  8.080 -0.265  8.090 -0.253
  8.100 -0.242  8.110 -0.217  8.120 -0.179  8.130 -0.119  8.140 -0.081
  8.150 -0.051  8.160 -0.022  8.170  0.026  8.180  0.060  8.190  0.068
  8.200  0.097  8.210  0.107  8.220  0.130  8.230  0.140  8.240  0.153
  8.250  0.177  8.260  0.170  8.270  0.153  8.280  0.173  8.290  0.174
  8.300  0.163  8.310  0.177  8.320  0.177  8.330  0.142  8.340  0.095
  8.350  0.065  8.360  0.012  8.370 -0.026  8.380 -0.071  8.390 -0.122
  8.400 -0.154  8.410 -0.183  8.420 -0.196  8.430 -0.196  8.440 -0.188
  8.450 -0.172  8.460 -0.152  8.470 -0.172  8.480 -0.172  8.490 -0.172
  8.500 -0.149  8.510 -0.126  8.520 -0.113  8.530 -0.122  8.540 -0.126
  8.550 -0.126  8.560 -0.126  8.570 -0.126  8.580 -0.102  8.590 -0.090
  8.600 -0.061  8.610 -0.008  8.620  0.022  8.630  0.052  8.640  0.082
  8.650  0.111  8.660  0.141  8.670  0.153  8.680  0.153  8.690  0.161
  8.700  0.191  8.710  0.220  8.720  0.250  8.730  0.270  8.740  0.253
  8.750  0.223  8.760  0.193  8.770  0.177  8.780  0.177  8.790  0.153
  8.800  0.144  8.810  0.114  8.820  0.062  8.830  0.031  8.840 -0.010
  8.850 -0.033  8.860 -0.058  8.870 -0.079  8.880 -0.094  8.890 -0.102
  8.900 -0.130  8.910 -0.149  8.920 -0.149  8.930 -0.149  8.940 -0.156
  8.950 -0.186  8.960 -0.216  8.970 -0.269  8.980 -0.299  8.990 -0.312
  9.000 -0.312  9.010 -0.312  9.020 -0.312  9.030 -0.273  9.040 -0.239
  9.050 -0.209  9.060 -0.180  9.070 -0.128  9.080 -0.091  9.090 -0.044
  9.100 -0.033  9.110 -0.031  9.120 -0.001  9.130  0.029  9.140  0.058
  9.150  0.111  9.160  0.141  9.170  0.171  9.180  0.201  9.190  0.223
  9.200  0.223  9.210  0.244  9.220  0.270  9.230  0.280  9.240  0.293
  9.250  0.293  9.260  0.293  9.270  0.280  9.280  0.231  9.290  0.200
  9.300  0.181  9.310  0.137  9.320  0.130  9.330  0.107  9.340  0.095
  9.350  0.065  9.360  0.033  9.370 -0.018  9.380 -0.048  9.390 -0.077
  9.400 -0.102  9.410 -0.091  9.420 -0.079  9.430 -0.079  9.440 -0.079
  9.450 -0.093  9.460 -0.123  9.470 -0.153  9.480 -0.182  9.490 -0.196
  9.500 -0.196  9.510 -0.219  9.520 -0.219  9.530 -0.199  9.540 -0.172
  9.550 -0.172  9.560 -0.156  9.570 -0.149  9.580 -0.097  9.590 -0.067
  9.600 -0.037  9.610 -0.031  9.620 -0.001  9.630  0.029  9.640  0.058
  9.650  0.088  9.660  0.118  9.670  0.148  9.680  0.177  9.690  0.184
  9.700  0.200  9.710  0.200  9.720  0.204  9.730  0.223  9.740  0.223
  9.750  0.246  9.760  0.270  9.770  0.270  9.780  0.270  9.790  0.270
  9.800  0.270  9.810  0.270  9.820  0.247  9.830  0.217  9.840  0.188
  9.850  0.139  9.860  0.103  9.870  0.052  9.880  0.007  9.890 -0.052
  9.900 -0.107  9.910 -0.137  9.920 -0.184  9.930 -0.196  9.940 -0.188
  9.950 -0.158  9.960 -0.108  9.970 -0.079  9.980 -0.059  9.990  0.034
 10.000  0.084 10.010  0.060 10.020  0.073 10.030  0.084 10.040  0.104
 10.050  0.074 10.060  0.060 10.070  0.038 10.080  0.014 10.090  0.014
 10.100 -0.005 10.110 -0.009 10.120 -0.018 10.130 -0.033 10.140 -0.054
 10.150 -0.056 10.160 -0.067 10.170 -0.079 10.180 -0.102 10.190 -0.102
 10.200 -0.102 10.210 -0.102 10.220 -0.102 10.230 -0.113 10.240 -0.109
 10.250 -0.102 10.260 -0.102 10.270 -0.102 10.280 -0.083 10.290 -0.056
 10.300 -0.047 10.310 -0.049 10.320 -0.034 10.330 -0.033 10.340 -0.033
 10.350 -0.051 10.360 -0.077 10.370 -0.056 10.380 -0.041 10.390 -0.011
 10.400 -0.005 10.410  0.014 10.420 -0.004 10.430 -0.009 10.440  0.014
 10.450  0.014 10.460  0.034 10.470  0.064 10.480  0.094 10.490  0.090
 10.500  0.107 10.510  0.094 10.520  0.060 10.530  0.060 10.540  0.057
 10.550  0.037 10.560  0.021 10.570  0.014 10.580  0.019 10.590  0.037
 10.600  0.037 10.610  0.037 10.620  0.037 10.630  0.037 10.640  0.037
 10.650  0.014 10.660  0.003 10.670 -0.009 10.680 -0.009 10.690 -0.009
 10.700 -0.023 10.710 -0.053 10.720 -0.060 10.730 -0.079 10.740 -0.079
 10.750 -0.079 10.760 -0.073 10.770 -0.056 10.780 -0.056 10.790 -0.059
 10.800 -0.079 10.810 -0.079 10.820 -0.079 10.830 -0.079 10.840 -0.079
 10.850 -0.061 10.860 -0.033 10.870 -0.024 10.880 -0.009 10.890 -0.009
 10.900  0.023 10.910  0.060 10.920  0.060 10.930  0.059 10.940  0.030
 10.950 -0.000 10.960 -0.009 10.970 -0.009 10.980  0.001 10.990  0.014
 11.000  0.037 11.010  0.037 11.020  0.050 11.030  0.060 11.040  0.084
 11.050  0.084 11.060  0.084 11.070  0.084 11.080  0.078 11.090  0.060
 11.100  0.060 11.110  0.058 11.120  0.037 11.130  0.022 11.140  0.014
 11.150  0.009 11.160 -0.021 11.170 -0.033 11.180 -0.057 11.190 -0.079
 11.200 -0.093 11.210 -0.102 11.220 -0.076 11.230 -0.046 11.240 -0.033
 11.250 -0.009 11.260 -0.033 11.270 -0.020 11.280 -0.009 11.290 -0.030
 11.300 -0.000 11.310  0.030 11.320  0.037 11.330  0.060 11.340  0.072
 11.350  0.084 11.360  0.084 11.370  0.084 11.380  0.098 11.390  0.107
 11.400  0.107 11.410  0.118 11.420  0.112 11.430  0.107 11.440  0.099
 11.450  0.084 11.460  0.084 11.470  0.080 11.480  0.060 11.490  0.044
 11.500  0.037 11.510  0.037 11.520  0.050 11.530  0.060 11.540  0.060
 11.550  0.060 11.560  0.060 11.570  0.038 11.580  0.008 11.590 -0.022
 11.600 -0.051 11.610 -0.079 11.620 -0.088 11.630 -0.102 11.640 -0.124
 11.650 -0.130 11.660 -0.149 11.670 -0.149 11.680 -0.148 11.690 -0.126
 11.700 -0.126 11.710 -0.146 11.720 -0.149 11.730 -0.159 11.740 -0.172
 11.750 -0.149 11.760 -0.142 11.770 -0.126 11.780 -0.126 11.790 -0.100
 11.800 -0.079 11.810 -0.079 11.820 -0.079 11.830 -0.045 11.840  0.003
 11.850  0.032 11.860  0.060 11.870  0.052 11.880  0.052 11.890  0.039
 11.900  0.042 11.910  0.060 11.920  0.096 11.930  0.108 11.940  0.130
 11.950  0.130 11.960  0.130 11.970  0.130 11.980  0.140 11.990  0.153
 12.000  0.153 12.010  0.177 12.020  0.177 12.030  0.177 12.040  0.153
 12.050  0.153 12.060  0.153 12.070  0.131 12.080  0.084 12.090  0.071
 12.100  0.060 12.110  0.035 12.120  0.014 12.130 -0.001 12.140 -0.009
 12.150 -0.005 12.160  0.014 12.170  0.014 12.180 -0.009 12.190 -0.017
 12.200 -0.033 12.210 -0.053 12.220 -0.079 12.230 -0.079 12.240 -0.079
 12.250 -0.102 12.260 -0.126 12.270 -0.126 12.280 -0.145 12.290 -0.149
 12.300 -0.149 12.310 -0.149 12.320 -0.149 12.330 -0.126 12.340 -0.126
 12.350 -0.107 12.360 -0.077 12.370 -0.056 12.380 -0.056 12.390 -0.035
 12.400 -0.028 12.410 -0.009 12.420 -0.009 12.430  0.015 12.440  0.037
 12.450  0.037 12.460  0.057 12.470  0.060 12.480  0.050 12.490  0.020
 12.500 -0.009 12.510 -0.009 12.520  0.004 12.530  0.033 12.540  0.040
 12.550  0.060 12.560  0.044 12.570  0.015 12.580  0.014 12.590  0.026
 12.600  0.037 12.610  0.037 12.620  0.045 12.630  0.045 12.640  0.016
 12.650  0.009 12.660 -0.021 12.670 -0.050 12.680 -0.080 12.690 -0.102
 12.700 -0.102 12.710 -0.102 12.720 -0.079 12.730 -0.079 12.740 -0.079
 12.750 -0.079 12.760 -0.079 12.770 -0.079 12.780 -0.079 12.790 -0.079
 12.800 -0.079 12.810 -0.095 12.820 -0.080 12.830 -0.079 12.840 -0.079
 12.850 -0.079 12.860 -0.077 12.870 -0.056 12.880 -0.041 12.890 -0.033
 12.900 -0.009 12.910  0.002 12.920  0.031 12.930  0.060 12.940  0.060
 12.950  0.060 12.960  0.060 12.970  0.037 12.980  0.037 12.990  0.037
 13.000  0.060 13.010  0.067 13.020  0.084 13.030  0.084 13.040  0.060
 13.050  0.060 13.060  0.060 13.070  0.038 13.080  0.060 13.090  0.072
 13.100  0.084 13.110  0.060 13.120  0.052 13.130  0.037 13.140  0.037
 13.150  0.018 13.160  0.037 13.170  0.037 13.180  0.060 13.190  0.060
 13.200  0.046 13.210  0.037 13.220  0.010 13.230 -0.009 13.240 -0.026
 13.250 -0.033 13.260 -0.056 13.270 -0.056 13.280 -0.036 13.290 -0.033
 13.300 -0.033 13.310 -0.033 13.320 -0.033 13.330 -0.033 13.340 -0.033
 13.350 -0.033 13.360 -0.031 13.370 -0.009 13.380  0.005 13.390  0.014
 13.400  0.009 13.410  0.002 13.420  0.014 13.430  0.014 13.440  0.014
 13.450  0.014 13.460 -0.007 13.470 -0.009 13.480 -0.009 13.490  0.007
 13.500 -0.009 13.510 -0.026 13.520  0.004 13.530  0.014 13.540  0.014
 13.550  0.023 13.560  0.021 13.570  0.014 13.580  0.014 13.590  0.014
 13.600  0.032 13.610  0.037 13.620  0.037 13.630  0.037 13.640  0.037
 13.650  0.037 13.660  0.037 13.670  0.037 13.680  0.060 13.690  0.060
 13.700  0.060 13.710  0.060 13.720  0.057 13.730  0.037 13.740  0.037
 13.750  0.060 13.760  0.084 13.770  0.071 13.780  0.060 13.790  0.034
 13.800  0.004 13.810 -0.025 13.820 -0.033 13.830 -0.033 13.840 -0.033
 13.850 -0.033 13.860 -0.031 13.870 -0.009 13.880 -0.009 13.890 -0.009
 13.900 -0.005 13.910  0.014 13.920  0.031 13.930  0.037 13.940  0.044
 13.950  0.060 13.960  0.040 13.970  0.037 13.980  0.027 13.990  0.014
 14.000  0.037 14.010  0.014 14.020  0.027 14.030  0.037 14.040  0.060
 14.050  0.060 14.060  0.060 14.070  0.083 14.080  0.084 14.090  0.084
 14.100  0.084 14.110  0.082 14.120  0.052 14.130  0.037 14.140  0.016
 14.150  0.009 14.160 -0.021 14.170 -0.033 14.180 -0.034 14.190 -0.063
 14.200 -0.079 14.210 -0.079 14.220 -0.079 14.230 -0.079 14.240 -0.063
 14.250 -0.056 14.260 -0.063 14.270 -0.079 14.280 -0.079 14.290 -0.105
 14.300 -0.126 14.310 -0.126 14.320 -0.126 14.330 -0.126 14.340 -0.126
 14.350 -0.126 14.360 -0.102 14.370 -0.094 14.380 -0.079 14.390 -0.079
 14.400 -0.075 14.410 -0.056 14.420 -0.056 14.430 -0.055 14.440 -0.033
 14.450 -0.033 14.460 -0.033 14.470 -0.052 14.480 -0.033 14.490 -0.033
 14.500 -0.009 14.510  0.020 14.520  0.037 14.530  0.037 14.540  0.060
 14.550  0.070 14.560  0.084 14.570  0.084 14.580  0.084 14.590  0.084
 14.600  0.084 14.610  0.082 14.620  0.060 14.630  0.060 14.640  0.060
 14.650  0.084 14.660  0.084 14.670  0.084 14.680  0.108 14.690  0.130
 14.700  0.116 14.710  0.066 14.720  0.057 14.730  0.037 14.740  0.020
 14.750  0.014 14.760 -0.009 14.770 -0.009 14.780 -0.009 14.790 -0.036
 14.800 -0.056 14.810 -0.072 14.820 -0.079 14.830 -0.056 14.840 -0.056
 14.850 -0.056 14.860 -0.033 14.870 -0.041 14.880 -0.056 14.890 -0.056
 14.900 -0.033 14.910 -0.033 14.920 -0.050 14.930 -0.033 14.940 -0.025
 14.950 -0.009 14.960 -0.009 14.970  0.017 14.980  0.037 14.990  0.054
 15.000  0.084 15.010  0.084 15.020  0.084 15.030  0.084 15.040  0.086
 15.050  0.107 15.060  0.107 15.070  0.107 15.080  0.107 15.090  0.119
 15.100  0.130 15.110  0.128 15.120  0.107 15.130  0.107 15.140  0.107
 15.150  0.102 15.160  0.072 15.170  0.060 15.180  0.037 15.190  0.037
 15.200  0.037 15.210  0.037 15.220  0.033 15.230  0.014 15.240 -0.003
 15.250 -0.009 15.260 -0.033 15.270 -0.046 15.280 -0.056 15.290 -0.079
 15.300 -0.089 15.310 -0.118 15.320 -0.126 15.330 -0.102 15.340 -0.090
 15.350 -0.079 15.360 -0.081 15.370 -0.102 15.380 -0.102 15.390 -0.102
 15.400 -0.102 15.410 -0.102 15.420 -0.085 15.430 -0.079 15.440 -0.079
 15.450 -0.079 15.460 -0.079 15.470 -0.056 15.480 -0.056 15.490 -0.039
 15.500 -0.033 15.510 -0.033 15.520 -0.020 15.530  0.010 15.540  0.037
 15.550  0.046 15.560  0.076 15.570  0.106 15.580  0.101 15.590  0.084
 15.600  0.084 15.610  0.084 15.620  0.084 15.630  0.084 15.640  0.084
 15.650  0.084 15.660  0.072 15.670  0.060 15.680  0.060 15.690  0.060
 15.700  0.060 15.710  0.040 15.720  0.033 15.730  0.014 15.740  0.014
 15.750  0.014 15.760  0.007 15.770 -0.009 15.780 -0.009 15.790 -0.009
 15.800 -0.009 15.810 -0.025 15.820 -0.033 15.830 -0.056 15.840 -0.056
 15.850 -0.056 15.860 -0.079 15.870 -0.079 15.880 -0.079 15.890 -0.079
 15.900 -0.079 15.910 -0.079 15.920 -0.062 15.930 -0.032 15.940 -0.009
 15.950 -0.009 15.960  0.011 15.970  0.014 15.980  0.014 15.990  0.014
 16.000  0.014 16.010  0.014 16.020  0.014 16.030  0.033 16.040  0.037
 16.050  0.028 16.060  0.014 16.070  0.014 16.080  0.014 16.090  0.014
 16.100  0.014 16.110 -0.009 16.120 -0.009 16.130 -0.009 16.140 -0.009
 16.150 -0.037 16.160 -0.056 16.170 -0.091 16.180 -0.103 16.190 -0.126
 16.200 -0.126 16.210 -0.126 16.220 -0.126 16.230 -0.126 16.240 -0.109
 16.250 -0.102 16.260 -0.102 16.270 -0.102 16.280 -0.102 16.290 -0.102
 16.300 -0.093 16.310 -0.079 16.320 -0.057 16.330 -0.056 16.340 -0.056
 16.350 -0.056 16.360 -0.054 16.370 -0.033 16.380 -0.018 16.390  0.012
 16.400  0.018 16.410  0.048 16.420  0.060 16.430  0.061 16.440  0.084
 16.450  0.097 16.460  0.127 16.470  0.126 16.480  0.107 16.490  0.107
 16.500  0.107 16.510  0.084 16.520  0.071 16.530  0.080 16.540  0.084
 16.550  0.084 16.560  0.068 16.570  0.060 16.580  0.031 16.590  0.026
 16.600  0.037 16.610  0.037 16.620  0.037 16.630  0.022 16.640  0.014
 16.650 -0.009 16.660 -0.009 16.670 -0.009 16.680 -0.009 16.690 -0.009
 16.700 -0.009 16.710 -0.009 16.720 -0.013 16.730 -0.033 16.740 -0.033
 16.750 -0.033 16.760 -0.026 16.770 -0.022 16.780 -0.013 16.790 -0.012
 16.800 -0.023 16.810 -0.009 16.820 -0.009 16.830 -0.015 16.840 -0.033
 16.850 -0.014 16.860 -0.009 16.870 -0.009 16.880 -0.009 16.890 -0.009
 16.900 -0.005 16.910  0.025 16.920  0.019 16.930  0.014 16.940  0.014
 16.950  0.028 16.960  0.037 16.970  0.037 16.980  0.037 16.990  0.037
 17.000  0.014 17.010 -0.009 17.020 -0.022 17.030 -0.033 17.040 -0.056
 17.050 -0.056 17.060 -0.056 17.070 -0.056 17.080 -0.050 17.090 -0.021
 17.100  0.009 17.110  0.014 17.120  0.014 17.130  0.029 17.140  0.037
 17.150  0.056 17.160  0.048 17.170  0.060 17.180  0.084 17.190  0.076
 17.200  0.060 17.210  0.040 17.220  0.033 17.230  0.014 17.240  0.014
 17.250  0.037 17.260  0.060 17.270  0.060 17.280  0.060 17.290  0.037
 17.300  0.037 17.310  0.053 17.320  0.038 17.330  0.055 17.340  0.037
 17.350  0.037 17.360  0.035 17.370  0.014 17.380 -0.001 17.390  0.012
 17.400 -0.009 17.410 -0.021 17.420 -0.033 17.430 -0.033 17.440 -0.040
 17.450 -0.056 17.460 -0.076 17.470 -0.079 17.480 -0.079 17.490 -0.079
 17.500 -0.056 17.510 -0.039 17.520 -0.056 17.530 -0.036 17.540 -0.033
 17.550 -0.033 17.560 -0.033 17.570 -0.055 17.580 -0.056 17.590 -0.056
 17.600 -0.037 17.610 -0.054 17.620 -0.033 17.630 -0.018 17.640 -0.009
 17.650 -0.028 17.660 -0.009 17.670 -0.009 17.680 -0.009 17.690 -0.009
 17.700  0.004 17.710  0.014 17.720  0.037 17.730  0.037 17.740  0.037
 17.750  0.037 17.760  0.060 17.770  0.060 17.780  0.060 17.790  0.060
 17.800  0.051 17.810  0.053 17.820  0.060 17.830  0.060 17.840  0.060
 17.850  0.042 17.860  0.014 17.870  0.005 17.880  0.005 17.890 -0.008
 17.900 -0.033 17.910 -0.044 17.920 -0.056 17.930 -0.056 17.940 -0.049
 17.950 -0.033 17.960 -0.033 17.970 -0.033 17.980 -0.033 17.990 -0.033
 18.000 -0.033 18.010 -0.033 18.020 -0.046 18.030 -0.056 18.040 -0.056
 18.050 -0.056 18.060 -0.056 18.070 -0.056 18.080 -0.050 18.090 -0.021
 18.100  0.009 18.110  0.016 18.120  0.037 18.130  0.052 18.140  0.060
 18.150  0.065 18.160  0.072 18.170  0.060 18.180  0.060 18.190  0.060
 18.200  0.046 18.210  0.017 18.220  0.041 18.230  0.060 18.240  0.060
 18.250  0.037 18.260  0.054 18.270  0.050 18.280  0.060 18.290  0.060
 18.300  0.060 18.310  0.060 18.320  0.038 18.330  0.037 18.340  0.037
 18.350  0.037 18.360  0.014 18.370  0.014 18.380  0.014 18.390  0.014
 18.400  0.014 18.410  0.003 18.420  0.008 18.430 -0.009 18.440 -0.002
 18.450  0.014 18.460 -0.007 18.470 -0.013 18.480 -0.043 18.490 -0.056
 18.500 -0.079 18.510 -0.102 18.520 -0.102 18.530 -0.102 18.540 -0.102
 18.550 -0.102 18.560 -0.087 18.570 -0.079 18.580 -0.056 18.590 -0.056
 18.600 -0.037 18.610 -0.033 18.620 -0.033 18.630 -0.018 18.640 -0.009
 18.650 -0.005 18.660  0.014 18.670  0.014 18.680  0.015 18.690  0.044
 18.700  0.088 18.710  0.107 18.720  0.111 18.730  0.130 18.740  0.130
 18.750  0.130 18.760  0.113 18.770  0.130 18.780  0.150 18.790  0.130
 18.800  0.121 18.810  0.091 18.820  0.084 18.830  0.084 18.840  0.084
 18.850  0.065 18.860  0.058 18.870  0.029 18.880  0.014 18.890 -0.008
 18.900  0.009 18.910 -0.009 18.920 -0.027 18.930 -0.034 18.940 -0.056
 18.950 -0.070 18.960 -0.100 18.970 -0.102 18.980 -0.102 18.990 -0.102
 19.000 -0.102 19.010 -0.102 19.020 -0.102 19.030 -0.102 19.040 -0.076
 19.050 -0.056 19.060 -0.040 19.070 -0.033 19.080 -0.027 19.090 -0.009
 19.100  0.009 19.110  0.016 19.120  0.037 19.130  0.037 19.140  0.037
 19.150  0.037 19.160  0.037 19.170  0.037 19.180  0.038 19.190  0.060
 19.200  0.060 19.210  0.081 19.220  0.103 19.230  0.094 19.240  0.107
 19.250  0.084 19.260  0.060 19.270  0.060 19.280  0.041 19.290  0.034
 19.300  0.004 19.310 -0.025 19.320 -0.033 19.330 -0.038 19.340 -0.056
 19.350 -0.056 19.360 -0.054 19.370 -0.033 19.380 -0.033 19.390 -0.054
 19.400 -0.051 19.410 -0.044 19.420 -0.056 19.430 -0.056 19.440 -0.056
 19.450 -0.056 19.460 -0.056 19.470 -0.056 19.480 -0.046 19.490 -0.033
 19.500 -0.033 19.510 -0.033 19.520 -0.020 19.530  0.010 19.540  0.017
 19.550  0.037 19.560  0.037 19.570  0.015 19.580  0.019 19.590  0.037
 19.600  0.037 19.610  0.037 19.620  0.045 19.630  0.060 19.640  0.082
 19.650  0.084 19.660  0.072 19.670  0.060 19.680  0.083 19.690  0.068
 19.700  0.084 19.710  0.104 19.720  0.107 19.730  0.097 19.740  0.067
 19.750  0.084 19.760  0.031 19.770  0.001 19.780 -0.009 19.790 -0.033
 19.800 -0.033 19.810 -0.049 19.820 -0.056 19.830 -0.079 19.840 -0.079
 19.850 -0.079 19.860 -0.102 19.870 -0.102 19.880 -0.102 19.890 -0.102
 19.900 -0.102 19.910 -0.102 19.920 -0.102 19.930 -0.079 19.940 -0.079
 19.950 -0.079 19.960 -0.059 19.970 -0.052 19.980 -0.022 19.990  0.007
 20.000  0.037 20.010  0.037 20.020  0.050 20.030  0.080 20.040  0.110
 20.050  0.130 20.060  0.130 20.070  0.130 20.080  0.148 20.090  0.142
 20.100  0.153 20.110  0.155 20.120  0.177 20.130  0.177 20.140  0.198
 20.150  0.195 20.160  0.165 20.170  0.153 20.180  0.153 20.190  0.153
 20.200  0.139 20.210  0.110 20.220  0.080 20.230  0.060 20.240  0.044
 20.250  0.037 20.260  0.037 20.270  0.037 20.280  0.017 20.290 -0.012
 20.300 -0.033 20.310 -0.033 20.320 -0.055 20.330 -0.079 20.340 -0.091
 20.350 -0.102 20.360 -0.104 20.370 -0.134 20.380 -0.149 20.390 -0.170
 20.400 -0.177 20.410 -0.207 20.420 -0.219 20.430 -0.242 20.440 -0.242
 20.450 -0.242 20.460 -0.242 20.470 -0.219 20.480 -0.219 20.490 -0.202
 20.500 -0.172 20.510 -0.166 20.520 -0.136 20.530 -0.106 20.540 -0.100
 20.550 -0.079 20.560 -0.063 20.570 -0.011 20.580 -0.004 20.590  0.026
 20.600  0.074 20.610  0.085 20.620  0.115 20.630  0.130 20.640  0.151
 20.650  0.177 20.660  0.177 20.670  0.177 20.680  0.178 20.690  0.200
 20.700  0.200 20.710  0.179 20.720  0.177 20.730  0.177 20.740  0.177
 20.750  0.153 20.760  0.153 20.770  0.153 20.780  0.153 20.790  0.130
 20.800  0.121 20.810  0.091 20.820  0.061 20.830  0.031 20.840  0.014
 20.850 -0.005 20.860 -0.011 20.870 -0.041 20.880 -0.071 20.890 -0.079
 20.900 -0.102 20.910 -0.102 20.920 -0.120 20.930 -0.148 20.940 -0.126
 20.950 -0.126 20.960 -0.146 20.970 -0.153 20.980 -0.172 20.990 -0.172
 21.000 -0.172 21.010 -0.166 21.020 -0.149 21.030 -0.129 21.040 -0.102
 21.050 -0.102 21.060 -0.087 21.070 -0.057 21.080 -0.074 21.090 -0.044
 21.100 -0.014 21.110  0.014 21.120  0.014 21.130  0.029 21.140  0.037
 21.150  0.065 21.160  0.084 21.170  0.084 21.180  0.084 21.190  0.107
 21.200  0.121 21.210  0.130 21.220  0.126 21.230  0.117 21.240  0.130
 21.250  0.130 21.260  0.130 21.270  0.130 21.280  0.130 21.290  0.127
 21.300  0.097 21.310  0.084 21.320  0.061 21.330  0.031 21.340  0.002
 21.350 -0.009 21.360 -0.033 21.370 -0.033 21.380 -0.033 21.390 -0.033
 21.400 -0.009 21.410 -0.009 21.420 -0.009 21.430 -0.010 21.440 -0.025
 21.450 -0.009 21.460 -0.030 21.470 -0.033 21.480 -0.043 21.490 -0.056
 21.500 -0.079 21.510 -0.079 21.520 -0.079 21.530 -0.060 21.540 -0.033
 21.550 -0.033 21.560 -0.017 21.570  0.013 21.580  0.037 21.590  0.049
 21.600  0.060 21.610  0.060 21.620  0.060 21.630  0.060 21.640  0.060
 21.650  0.065 21.660  0.072 21.670  0.078 21.680  0.084 21.690  0.084
 21.700  0.070 21.710  0.060 21.720  0.084 21.730  0.073 21.740  0.077
 21.750  0.060 21.760  0.054 21.770  0.037 21.780  0.017 21.790  0.014
 21.800  0.014 21.810  0.014 21.820 -0.009 21.830 -0.015 21.840 -0.033
 21.850 -0.033 21.860 -0.035 21.870 -0.056 21.880 -0.071 21.890 -0.101
 21.900 -0.098 21.910 -0.079 21.920 -0.097 21.930 -0.079 21.940 -0.079
 21.950 -0.065 21.960 -0.036 21.970 -0.029 21.980 -0.009 21.990 -0.009
 22.000  0.014 22.010  0.020 22.020  0.037 22.030  0.037 22.040  0.060
 22.050  0.060 22.060  0.060 22.070  0.038 22.080  0.060 22.090  0.060
 22.100  0.079 22.110  0.084 22.120  0.084 22.130  0.069 22.140  0.060
 22.150  0.056 22.160  0.037 22.170  0.055 22.180  0.060 22.190  0.053
 22.200  0.037 22.210  0.017 22.220  0.014 22.230  0.014 22.240 -0.003
 22.250 -0.009 22.260  0.007 22.270 -0.009 22.280 -0.049 22.290 -0.056
 22.300 -0.056 22.310 -0.072 22.320 -0.079 22.330 -0.102 22.340 -0.102
 22.350 -0.121 22.360 -0.128 22.370 -0.149 22.380 -0.149 22.390 -0.149
 22.400 -0.144 22.410 -0.126 22.420 -0.108 22.430 -0.102 22.440 -0.079
 22.450 -0.065 22.460 -0.036 22.470 -0.033 22.480 -0.022 22.490  0.007
 22.500  0.014 22.510  0.014 22.520  0.014 22.530  0.014 22.540  0.017
 22.550  0.046 22.560  0.060 22.570  0.060 22.580  0.066 22.590  0.084
 22.600  0.084 22.610  0.082 22.620  0.060 22.630  0.060 22.640  0.060
 22.650  0.037 22.660  0.026 22.670  0.014 22.680  0.013 22.690 -0.009
 22.700 -0.023 22.710 -0.033 22.720 -0.056 22.730 -0.066 22.740 -0.079
 22.750 -0.079 22.760 -0.102 22.770 -0.102 22.780 -0.102 22.790 -0.102
 22.800 -0.102 22.810 -0.102 22.820 -0.125 22.830 -0.120 22.840 -0.102
 22.850 -0.102 22.860 -0.102 22.870 -0.102 22.880 -0.117 22.890 -0.104
 22.900 -0.102 22.910 -0.091 22.920 -0.079 22.930 -0.055 22.940 -0.033
 22.950 -0.033 22.960 -0.012 22.970 -0.009 22.980 -0.009 22.990  0.007
 23.000  0.037 23.010  0.060 23.020  0.060 23.030  0.060 23.040  0.060
 23.050  0.060 23.060  0.060 23.070  0.083 23.080  0.089 23.090  0.119
 23.100  0.149 23.110  0.175 23.120  0.145 23.130  0.130 23.140  0.130
 23.150  0.125 23.160  0.107 23.170  0.089 23.180  0.059 23.190  0.030
 23.200  0.014 23.210 -0.007 23.220 -0.033 23.230 -0.033 23.240 -0.033
 23.250 -0.056 23.260 -0.056 23.270 -0.069 23.280 -0.079 23.290 -0.082
 23.300 -0.102 23.310 -0.102 23.320 -0.125 23.330 -0.108 23.340 -0.126
 23.350 -0.126 23.360 -0.126 23.370 -0.126 23.380 -0.141 23.390 -0.149
 23.400 -0.126 23.410 -0.115 23.420 -0.085 23.430 -0.078 23.440 -0.049
 23.450 -0.047 23.460 -0.036 23.470 -0.009 23.480  0.001 23.490  0.014
 23.500  0.037 23.510  0.060 23.520  0.073 23.530  0.103 23.540  0.107
 23.550  0.107 23.560  0.123 23.570  0.130 23.580  0.107 23.590  0.107
 23.600  0.107 23.610  0.107 23.620  0.107 23.630  0.107 23.640  0.107
 23.650  0.102 23.660  0.072 23.670  0.060 23.680  0.037 23.690  0.044
 23.700  0.060 23.710  0.040 23.720  0.037 23.730  0.027 23.740 -0.003
 23.750 -0.009 23.760 -0.033 23.770 -0.046 23.780 -0.056 23.790 -0.079
 23.800 -0.079 23.810 -0.079 23.820 -0.102 23.830 -0.079 23.840 -0.067
 23.850 -0.056 23.860 -0.054 23.870 -0.033 23.880 -0.033 23.890 -0.033
 23.900 -0.028 23.910  0.002 23.920 -0.004 23.930 -0.009 23.940 -0.017
 23.950 -0.033 23.960 -0.033 23.970 -0.033 23.980 -0.022 23.990 -0.009
 24.000 -0.009 24.010 -0.009 24.020 -0.009 24.030 -0.009 24.040 -0.007
 24.050  0.014 24.060 -0.002 24.070 -0.009 24.080 -0.009 24.090 -0.022
 24.100 -0.033 24.110 -0.033 24.120 -0.033 24.130 -0.033 24.140 -0.033
 24.150 -0.037 24.160 -0.056 24.170 -0.038 24.180 -0.056 24.190 -0.049
 24.200 -0.033 24.210 -0.033 24.220 -0.029 24.230 -0.009 24.240 -0.009
 24.250  0.014 24.260  0.014 24.270  0.001 24.280 -0.009 24.290 -0.012
 24.300 -0.033 24.310 -0.033 24.320 -0.033 24.330 -0.033 24.340 -0.033
 24.350 -0.014 24.360 -0.009 24.370 -0.001 24.380 -0.001 24.390  0.012
 24.400  0.018 24.410  0.037 24.420  0.019 24.430 -0.010 24.440 -0.033
 24.450 -0.033 24.460 -0.053 24.470 -0.056 24.480 -0.056 24.490 -0.056
 24.500 -0.033 24.510 -0.039 24.520 -0.056 24.530 -0.056 24.540 -0.033
 24.550 -0.033 24.560 -0.017 24.570 -0.009 24.580 -0.009 24.590 -0.009
 24.600 -0.009 24.610 -0.009 24.620 -0.009 24.630 -0.009 24.640 -0.009
 24.650 -0.014 24.660 -0.033 24.670 -0.015 24.680  0.013 24.690 -0.017
 24.700 -0.019 24.710 -0.009 24.720 -0.036 24.730 -0.056 24.740 -0.056
 24.750 -0.009 24.760 -0.009 24.770 -0.009 24.780 -0.029 24.790 -0.030
 24.800 -0.009 24.810  0.006 24.820  0.014 24.830  0.037 24.840  0.025
 24.850  0.014 24.860  0.012 24.870 -0.009 24.880 -0.024 24.890 -0.033
 24.900 -0.033 24.910 -0.022 24.920 -0.009 24.930 -0.009 24.940  0.021
 24.950  0.023 24.960  0.014 24.970  0.014 24.980  0.024 24.990  0.037
 25.000  0.037 25.010  0.060 25.020  0.047 25.030  0.037 25.040  0.037
 25.050  0.028 25.060  0.030 25.070  0.015 25.080  0.014 25.090  0.014
 25.100  0.014 25.110  0.037 25.120  0.037 25.130  0.037 25.140  0.037
 25.150  0.037 25.160  0.026 25.170 -0.004 25.180 -0.009 25.190 -0.002
 25.200  0.014 25.210  0.034 25.220  0.014 25.230  0.014 25.240 -0.003
 25.250 -0.009 25.260 -0.009 25.270 -0.022 25.280 -0.033 25.290 -0.033
 25.300 -0.033 25.310 -0.049 25.320 -0.056 25.330 -0.056 25.340 -0.068
 25.350 -0.061 25.360 -0.056 25.370 -0.056 25.380 -0.056 25.390 -0.056
 25.400 -0.051 25.410 -0.033 25.420 -0.068 25.430 -0.079 25.440 -0.072
 25.450 -0.056 25.460 -0.036 25.470 -0.033 25.480 -0.033 25.490 -0.033
 25.500 -0.033 25.510 -0.026 25.520 -0.022 25.530 -0.013 25.540 -0.009
 25.550 -0.009 25.560 -0.009 25.570  0.013 25.580  0.014 25.590  0.026
 25.600  0.037 25.610  0.037 25.620  0.045 25.630  0.060 25.640  0.060
 25.650  0.060 25.660  0.071 25.670  0.084 25.680  0.060 25.690  0.060
 25.700  0.046 25.710  0.057 25.720  0.033 25.730  0.014 25.740 -0.003
 25.750 -0.009 25.760 -0.009 25.770  0.004 25.780  0.014 25.790  0.014
 25.800  0.014 25.810  0.030 25.820  0.015 25.830  0.014 25.840  0.014
 25.850  0.014 25.860  0.012 25.870 -0.001 25.880 -0.001 25.890 -0.031
 25.900 -0.037 25.910 -0.056 25.920 -0.074 25.930 -0.079 25.940 -0.079
 25.950 -0.079 25.960 -0.059 25.970 -0.052 25.980 -0.033 25.990 -0.033
 26.000 -0.009 26.010 -0.009 26.020  0.004 26.030  0.014 26.040  0.017
 26.050  0.037 26.060  0.037 26.070  0.015 26.080  0.014 26.090  0.002
 26.100 -0.009 26.110 -0.008 26.120  0.014 26.130  0.014 26.140  0.035
 26.150  0.037 26.160  0.037 26.170  0.037 26.180  0.037 26.190  0.037
 26.200  0.037 26.210  0.037 26.220  0.037 26.230  0.027 26.240  0.014
 26.250  0.014 26.260 -0.009 26.270 -0.009 26.280  0.010 26.290  0.011
 26.300 -0.009 26.310 -0.009 26.320 -0.032 26.330 -0.033 26.340 -0.045
 26.350 -0.056 26.360 -0.079 26.370 -0.079 26.380 -0.064 26.390 -0.056
 26.400 -0.056 26.410 -0.056 26.420 -0.038 26.430 -0.033 26.440 -0.040
 26.450 -0.042 26.460 -0.033 26.470 -0.029 26.480 -0.009 26.490 -0.009
 26.500  0.014 26.510  0.014 26.520  0.014 26.530  0.033 26.540  0.017
 26.550  0.037 26.560  0.037 26.570  0.059 26.580  0.066 26.590  0.084
 26.600  0.065 26.610  0.060 26.620  0.060 26.630  0.060 26.640  0.082
 26.650  0.060 26.660  0.060 26.670  0.060 26.680  0.060 26.690  0.053
 26.700  0.037 26.710  0.017 26.720  0.014 26.730  0.014 26.740  0.014
 26.750 -0.009 26.760 -0.016 26.770 -0.033 26.780 -0.052 26.790 -0.059
 26.800 -0.070 26.810 -0.056 26.820 -0.078 26.830 -0.056 26.840 -0.056
 26.850 -0.056 26.860 -0.056 26.870 -0.048 26.880 -0.033 26.890 -0.033
 26.900 -0.037 26.910 -0.056 26.920 -0.056 26.930 -0.079 26.940 -0.079
 26.950 -0.079 26.960 -0.079 26.970 -0.083 26.980 -0.102 26.990 -0.102
 27.000 -0.102 27.010 -0.102 27.020 -0.089 27.030 -0.079 27.040 -0.056
 27.050 -0.056 27.060 -0.040 27.070 -0.033 27.080 -0.033 27.090 -0.033
 27.100 -0.033 27.110 -0.033 27.120 -0.033 27.130 -0.033 27.140 -0.033
 27.150 -0.033 27.160 -0.022 27.170  0.008 27.180  0.014 27.190  0.014
 27.200  0.014 27.210 -0.007 27.220 -0.006 27.230  0.014 27.240  0.014
 27.250  0.014 27.260  0.014 27.270  0.014 27.280  0.014 27.290  0.014
 27.300  0.014 27.310  0.014 27.320  0.014 27.330  0.014 27.340  0.014
 27.350  0.014 27.360 -0.009 27.370 -0.009 27.380 -0.009 27.390 -0.009
 27.400 -0.005 27.410  0.014 27.420  0.014 27.430  0.014 27.440  0.006
 27.450 -0.009 27.460  0.011 27.470  0.014 27.480  0.014 27.490  0.014
 27.500  0.014 27.510  0.007 27.520 -0.022 27.530 -0.033 27.540 -0.033
 27.550 -0.042 27.560 -0.040 27.570 -0.033 27.580 -0.033 27.590 -0.033
 27.600 -0.033 27.610 -0.033 27.620 -0.024 27.630 -0.009 27.640 -0.009
 27.650 -0.009 27.660 -0.009 27.670 -0.009 27.680 -0.009 27.690 -0.009
 27.700 -0.009 27.710  0.011 27.720  0.017 27.730  0.037 27.740  0.020
 27.750  0.014 27.760  0.014 27.770  0.014 27.780  0.033 27.790  0.014
 27.800  0.014 27.810  0.014 27.820  0.014 27.830  0.014 27.840  0.014
 27.850 -0.005 27.860 -0.011 27.870 -0.033 27.880 -0.048 27.890 -0.056
 27.900 -0.033 27.910 -0.033 27.920 -0.033 27.930 -0.033 27.940 -0.025
 27.950 -0.023 27.960 -0.033 27.970 -0.036 27.980 -0.046 27.990 -0.033
 28.000 -0.033 28.010 -0.056 28.020 -0.056 28.030 -0.036 28.040 -0.033
 28.050 -0.033 28.060 -0.033 28.070 -0.010 28.080 -0.027 28.090 -0.009
 28.100  0.009 28.110  0.014 28.120  0.014 28.130  0.014 28.140  0.035
 28.150  0.037 28.160  0.037 28.170  0.019 28.180  0.037 28.190  0.037
 28.200  0.037 28.210  0.037 28.220  0.037 28.230  0.037 28.240  0.020
 28.250  0.014 28.260  0.014 28.270  0.001 28.280 -0.009 28.290 -0.012
 28.300 -0.033 28.310 -0.033 28.320 -0.033 28.330 -0.015 28.340 -0.033
 28.350 -0.033 28.360 -0.033 28.370 -0.041 28.380 -0.056 28.390 -0.056
 28.400 -0.056 28.410 -0.056 28.420 -0.038 28.430 -0.033 28.440 -0.033
 28.450 -0.047 28.460 -0.056 28.470 -0.052 28.480 -0.033 28.490 -0.033
 28.500 -0.033 28.510 -0.003 28.520  0.027 28.530  0.037 28.540  0.037
 28.550  0.046 28.560  0.060 28.570  0.060 28.580  0.060 28.590  0.060
 28.600  0.042 28.610  0.039 28.620  0.052 28.630  0.037 28.640  0.016
 28.650  0.014 28.660  0.025 28.670  0.019 28.680  0.015 28.690  0.044
 28.700  0.060 28.710  0.060 28.720  0.060 28.730  0.050 28.740  0.020
 28.750  0.014 28.760 -0.016 28.770 -0.033 28.780 -0.033 28.790 -0.033
 28.800 -0.042 28.810 -0.056 28.820 -0.056 28.830 -0.062 28.840 -0.079
 28.850 -0.079 28.860 -0.079 28.870 -0.079 28.880 -0.079 28.890 -0.058
 28.900 -0.056 28.910 -0.056 28.920 -0.038 28.930 -0.010 28.940 -0.033
 28.950 -0.019 28.960 -0.009 28.970 -0.006 28.980  0.014 28.990  0.014
 29.000  0.014 29.010  0.037 29.020  0.050 29.030  0.060 29.040  0.040
 29.050  0.060 29.060  0.044 29.070  0.037 29.080  0.055 29.090  0.037
 29.100  0.037 29.110  0.037 29.120  0.037 29.130  0.037 29.140  0.016
 29.150  0.014 29.160  0.014 29.170  0.014 29.180  0.013 29.190 -0.002
 29.200  0.014 29.210 -0.007 29.220 -0.009 29.230 -0.009 29.240 -0.009
 29.250 -0.033 29.260 -0.016 29.270 -0.033 29.280 -0.033 29.290 -0.012
 29.300 -0.033 29.310 -0.017 29.320 -0.009 29.330 -0.009 29.340 -0.022
 29.350 -0.033 29.360 -0.033 29.370 -0.041 29.380 -0.041 29.390 -0.011
 29.400 -0.037 29.410 -0.045 29.420 -0.033 29.430 -0.009 29.440 -0.009
 29.450 -0.009 29.460 -0.009 29.470 -0.009 29.480 -0.009 29.490 -0.009
 29.500 -0.009 29.510 -0.016 29.520 -0.020 29.530 -0.009 29.540 -0.009
 29.550 -0.000 29.560 -0.002 29.570 -0.009 29.580 -0.009 29.590 -0.009
 29.600 -0.009 29.610 -0.009 29.620 -0.009 29.630 -0.009 29.640 -0.009
 29.650 -0.009 29.660 -0.009 29.670 -0.009 29.680 -0.009 29.690 -0.002
 29.700 -0.000 29.710 -0.009 29.720 -0.009 29.730 -0.009 29.740 -0.009
 29.750 -0.009 29.760 -0.009 29.770 -0.009 29.780 -0.009 29.790  0.011
 29.800 -0.009 29.810 -0.009 29.820 -0.009 29.830 -0.009 29.840  0.003
 29.850  0.014 29.860  0.014 29.870  0.014 29.880  0.014 29.890  0.014
 29.900  0.018 29.910  0.037 29.920  0.055 29.930  0.060 29.940  0.053
 29.950  0.051 29.960  0.060 29.970  0.060 29.980  0.060 29.990  0.044
 30.000  0.037 30.010  0.037 30.020  0.037 30.030  0.037 30.040  0.037
 30.050  0.037 30.060  0.037 30.070  0.037 30.080  0.037 30.090  0.037
 30.100  0.037 30.110  0.014 30.120  0.014 30.130 -0.001 30.140 -0.009
 30.150 -0.033 30.160 -0.033 30.170 -0.050 30.180 -0.056 30.190 -0.056
 30.200 -0.056 30.210 -0.056 30.220 -0.056 30.230 -0.046 30.240 -0.033
 30.250 -0.033 30.260 -0.033 30.270 -0.033 30.280 -0.052 30.290 -0.056
 30.300 -0.056 30.310 -0.056 30.320 -0.056 30.330 -0.056 30.340 -0.056
 30.350 -0.056 30.360 -0.054 30.370 -0.041 30.380 -0.041 30.390 -0.033
 30.400 -0.009 30.410  0.002 30.420  0.014 30.430  0.014 30.440  0.014
 30.450  0.014 30.460  0.014 30.470  0.014 30.480  0.014 30.490  0.031
 30.500  0.037 30.510  0.037 30.520  0.037 30.530  0.037 30.540  0.060
 30.550  0.070 30.560  0.068 30.570  0.060 30.580  0.031 30.590  0.014
 30.600  0.014 30.610  0.014 30.620  0.014 30.630 -0.001 30.640  0.012
 30.650  0.009 30.660 -0.009 30.670 -0.009 30.680 -0.009 30.690 -0.009
 30.700 -0.009 30.710 -0.030 30.720 -0.033 30.730 -0.033 30.740 -0.016
 30.750 -0.033 30.760 -0.026 30.770 -0.009 30.780 -0.029 30.790 -0.030
 30.800 -0.009 30.810 -0.009 30.820 -0.009 30.830 -0.009 30.840  0.003
 30.850  0.014 30.860  0.014 30.870  0.022 30.880  0.037 30.890  0.037
 30.900  0.037 30.910  0.037 30.920  0.037 30.930  0.060 30.940  0.060
 30.950  0.074 30.960  0.063 30.970  0.060 30.980  0.060 30.990  0.060
 31.000  0.060 31.010  0.084 31.020  0.084 31.030  0.084 31.040  0.081
 31.050  0.070 31.060  0.068 31.070  0.083 31.080  0.060 31.090  0.060
 31.100  0.060 31.110  0.060 31.120  0.060 31.130  0.045 31.140  0.058
 31.150  0.060 31.160  0.049 31.170  0.055 31.180  0.038 31.190  0.053
 31.200  0.023 31.210  0.014 31.220 -0.009 31.230 -0.009 31.240 -0.009
 31.250 -0.009 31.260 -0.009 31.270 -0.009 31.280 -0.009 31.290 -0.012
 31.300 -0.033 31.310 -0.049 31.320 -0.034 31.330 -0.038 31.340 -0.056
 31.350 -0.056 31.360 -0.056 31.370 -0.056 31.380 -0.056 31.390 -0.056
 31.400 -0.033 31.410 -0.033 31.420 -0.015 31.430 -0.009 31.440 -0.002
 31.450  0.028 31.460  0.037 31.470  0.060 31.480  0.060 31.490  0.060
 31.500  0.060 31.510  0.044 31.520  0.060 31.530  0.080 31.540  0.084
 31.550  0.084 31.560  0.099 31.570  0.107 31.580  0.084 31.590  0.084
 31.600  0.084 31.610  0.084 31.620  0.075 31.630  0.075 31.640  0.062
 31.650  0.060 31.660  0.060 31.670  0.060 31.680  0.037 31.690  0.030
 31.700  0.014 31.710  0.014 31.720  0.010 31.730 -0.009 31.740 -0.026
 31.750 -0.033 31.760 -0.033 31.770 -0.033 31.780 -0.033 31.790 -0.009
 31.800 -0.009 31.810 -0.009 31.820 -0.009 31.830 -0.009 31.840 -0.022
 31.850 -0.033 31.860 -0.033 31.870 -0.033 31.880 -0.018 31.890 -0.009
 31.900  0.014 31.910  0.014 31.920  0.014 31.930  0.014 31.940  0.014
 31.950  0.014 31.960  0.014 31.970  0.037 31.980  0.037 31.990  0.054
 32.000  0.060 32.010  0.037 32.020  0.037 32.030  0.037 32.040  0.037
 32.050  0.037 32.060  0.037 32.070  0.015 32.080 -0.009 32.090 -0.022
 32.100 -0.051 32.110 -0.054 32.120 -0.033 32.130 -0.033 32.140 -0.033
 32.150 -0.033 32.160 -0.022 32.170 -0.009 32.180 -0.009 32.190 -0.009
 32.200 -0.009 32.210  0.011 32.220  0.014 32.230  0.024 32.240  0.037
 32.250  0.014 32.260  0.014 32.270  0.014 32.280  0.014 32.290  0.014
 32.300  0.014 32.310  0.014 32.320  0.014 32.330  0.043 32.340  0.060
 32.350  0.060 32.360  0.037 32.370  0.037 32.380  0.052 32.390  0.060
 32.400  0.060 32.410  0.060 32.420  0.060 32.430  0.060 32.440  0.053
 32.450  0.037 32.460  0.037 32.470  0.037 32.480  0.027 32.490  0.031
 32.500  0.014 32.510  0.037 32.520  0.024 32.530  0.014 32.540 -0.009
 32.550 -0.019 32.560 -0.017 32.570 -0.009 32.580 -0.015 32.590 -0.021
 32.600 -0.009 32.610 -0.033 32.620 -0.033 32.630 -0.033 32.640 -0.033
 32.650 -0.056 32.660 -0.056 32.670 -0.056 32.680 -0.056 32.690 -0.056
 32.700 -0.070 32.710 -0.079 32.720 -0.079 32.730 -0.079 32.740 -0.079
 32.750 -0.079 32.760 -0.056 32.770 -0.056 32.780 -0.056 32.790 -0.053
 32.800 -0.033 32.810 -0.033 32.820 -0.010 32.830 -0.004 32.840  0.014
 32.850  0.014 32.860  0.037 32.870  0.037 32.880  0.037 32.890  0.037
 32.900  0.037 32.910  0.037 32.920  0.037 32.930  0.059 32.940  0.037
 32.950  0.037 32.960  0.037 32.970  0.057 32.980  0.037 32.990  0.037
 33.000  0.037 33.010  0.031 33.020  0.014 33.030  0.014 33.040 -0.009
 33.050 -0.009 33.060 -0.009 33.070  0.013 33.080  0.008 33.090 -0.009
 33.100 -0.009 33.110 -0.011 33.120 -0.041 33.130 -0.056 33.140 -0.056
 33.150 -0.079 33.160 -0.079 33.170 -0.062 33.180 -0.055 33.190 -0.033
 33.200 -0.047 33.210 -0.036 33.220 -0.033 33.230 -0.033 33.240 -0.033
 33.250 -0.033 33.260 -0.033 33.270 -0.033 33.280 -0.033 33.290 -0.033
 33.300 -0.033 33.310 -0.049 33.320 -0.034 33.330 -0.009 33.340 -0.009
 33.350  0.009 33.360  0.037 33.370  0.037 33.380  0.037 33.390  0.037
 33.400  0.060 33.410  0.060 33.420  0.060 33.430  0.084 33.440  0.084
 33.450  0.084 33.460  0.084 33.470  0.060 33.480  0.060 33.490  0.060
 33.500  0.060 33.510  0.060 33.520  0.060 33.530  0.041 33.540  0.037
 33.550  0.037 33.560  0.037 33.570  0.037 33.580  0.014 33.590  0.002
 33.600 -0.028 33.610 -0.031 33.620 -0.009 33.630 -0.009 33.640 -0.031
 33.650 -0.014 33.660 -0.033 33.670 -0.033 33.680 -0.009 33.690 -0.009
 33.700 -0.009 33.710 -0.030 33.720 -0.033 33.730 -0.033 33.740 -0.033
 33.750 -0.033 33.760 -0.033 33.770 -0.033 33.780 -0.033 33.790 -0.030
 33.800 -0.009 33.810 -0.009 33.820  0.013 33.830  0.014 33.840  0.014
 33.850  0.014 33.860  0.014 33.870  0.022 33.880  0.037 33.890  0.016
 33.900  0.014 33.910  0.014 33.920  0.014 33.930 -0.009 33.940 -0.002
 33.950 -0.000 33.960 -0.009 33.970 -0.009 33.980 -0.009 33.990 -0.009
 34.000 -0.009 34.010 -0.003 34.020  0.001 34.030 -0.009 34.040 -0.012
 34.050 -0.033 34.060 -0.033 34.070 -0.033 34.080 -0.009 34.090 -0.009
 34.100  0.009 34.110 -0.009 34.120 -0.009 34.130  0.005 34.140  0.014
 34.150  0.014 34.160  0.014 34.170  0.031 34.180  0.059 34.190  0.044
 34.200  0.060 34.210  0.060 34.220  0.084 34.230  0.084 34.240  0.084
 34.250  0.060 34.260  0.060 34.270  0.060 34.280  0.060 34.290  0.060
 34.300  0.051 34.310  0.037 34.320  0.037 34.330  0.043 34.340  0.060
 34.350  0.042 34.360  0.035 34.370  0.014 34.380  0.014 34.390 -0.008
 34.400 -0.009 34.410 -0.021 34.420 -0.033 34.430 -0.033 34.440 -0.033
 34.450 -0.033 34.460 -0.033 34.470 -0.033 34.480 -0.043 34.490 -0.056
 34.500 -0.079 34.510 -0.073 34.520 -0.056 34.530 -0.056 34.540 -0.056
 34.550 -0.056 34.560 -0.056 34.570 -0.034 34.580 -0.033 34.590 -0.033
 34.600 -0.014 34.610  0.014 34.620  0.022 34.630  0.037 34.640  0.037
 34.650  0.060 34.660  0.060 34.670  0.078 34.680  0.084 34.690  0.084
 34.700  0.084 34.710  0.084 34.720  0.080 34.730  0.060 34.740  0.077
 34.750  0.084 34.760  0.084 34.770  0.084 34.780  0.084 34.790  0.084
 34.800  0.084 34.810  0.099 34.820  0.107 34.830  0.084 34.840  0.084
 34.850  0.084 34.860  0.084 34.870  0.075 34.880  0.045 34.890  0.037
 34.900  0.014 34.910  0.003 34.920 -0.009 34.930 -0.010 34.940 -0.033
 34.950 -0.047 34.960 -0.056 34.970 -0.056 34.980 -0.056 34.990 -0.073
/&  ----------  END OF DATA FOR CHANNEL 1  ----------
UNCORRECTED ACCELEROGRAM DATA              PROCESSED: 05/24/2011
MAULE 2010
02/27/2010 3:41:05 (GMT)                (ORIGIN: 02/27/2010 3:41:05 GMT)
                                   TRIGGER TIME: 2/27/2010 3:41:15.000 GMT
STATION NO.          0.000N    0.000E  QDR       S/N  675 (3  CHNS OF 3  AT STA)
VIÑA DEL MAR CENTRO S/N 675
CHAN  2: NS       (STA CHN:  2)               
UNIVERSIDAD DE CHILE - RENADIC
HYPOCENTER:   0.000N    0.000E  H=   0.0KM   ML= 0.00
INSTR PERIOD = 0.0391 SEC,  DAMPING =0.7000,  SENSITIVITY =1.250 VDC/G
NO. OF POINTS =   3500  RECORD LENGTH = 35.000 SEC
UNITS OF UNCOR ACCEL ARE SEC AND G/10.     MAX  =  0.033 G, AT  -5.090 SEC
RMS ACCEL OF COMPLETE RECORD = 0.007 G
    2    1    2    3    3    0    1    0    0    0    0    0    0    0    0    0
    0    0    0    0    0    0    0    0    0    0    0 3500   10   27   30    0
    0    0    0    0    0    0    0    0    0    0    0    0    0    0    0    0
    0    0    0    0    0    0    0    0    0    0    0    0    0    0    0    0
    0    0    0    0    0    0    0    0    0    0    0    0    0    0    0    0
    0    0    0    0    0    0    0    0    0    0    0    0    0    0    0    0
    0    0    0    0
     0.039     0.700    35.000     0.007     0.100     1.250     0.033    -5.090
    25.575     0.000     0.000     0.000    10.000     0.000    10.000    10.000
     0.000     0.000     0.000     0.000     0.000     0.000     0.000     0.000
     0.000     0.000     0.000     0.000     0.000     0.000     0.000     0.000
     0.000     0.000     0.000     0.000     0.000     0.000     0.000     0.000
     0.000     0.000     0.000     0.000     0.000     0.000     0.000     0.000
     0.000     0.000
  0.000  0.109  0.010  0.109  0.020  0.109  0.030  0.090  0.040  0.062
  0.050  0.025  0.060 -0.017  0.070 -0.024  0.080 -0.024  0.090 -0.035
  0.100 -0.046  0.110 -0.025  0.120 -0.046  0.130 -0.017  0.140  0.019
  0.150  0.069  0.160  0.108  0.170  0.148  0.180  0.175  0.190  0.175
  0.200  0.162  0.210  0.114  0.220  0.035  0.230 -0.021  0.240 -0.093
  0.250 -0.134  0.260 -0.168  0.270 -0.200  0.280 -0.182  0.290 -0.131
  0.300 -0.103  0.310 -0.060  0.320 -0.003  0.330  0.004  0.340  0.032
  0.350  0.060  0.360  0.088  0.370  0.109  0.380  0.095  0.390  0.046
  0.400  0.016  0.410 -0.012  0.420 -0.024  0.430 -0.047  0.440 -0.068
  0.450 -0.081  0.460 -0.090  0.470 -0.112  0.480 -0.112  0.490 -0.096
  0.500 -0.068  0.510 -0.033  0.520  0.011  0.530  0.058  0.540  0.089
  0.550  0.118  0.560  0.146  0.570  0.132  0.580  0.131  0.590  0.119
  0.600  0.109  0.610  0.109  0.620  0.109  0.630  0.095  0.640  0.087
  0.650  0.056  0.660  0.010  0.670 -0.002  0.680 -0.048  0.690 -0.090
  0.700 -0.103  0.710 -0.131  0.720 -0.156  0.730 -0.156  0.740 -0.140
  0.750 -0.112  0.760 -0.106  0.770 -0.078  0.780 -0.068  0.790 -0.065
  0.800 -0.037  0.810 -0.024  0.820 -0.024  0.830 -0.029  0.840 -0.046
  0.850 -0.063  0.860 -0.090  0.870 -0.090  0.880 -0.076  0.890 -0.068
  0.900 -0.068  0.910 -0.068  0.920 -0.068  0.930 -0.067  0.940 -0.039
  0.950 -0.024  0.960 -0.004  0.970  0.020  0.980  0.011  0.990 -0.002
  1.000 -0.024  1.010 -0.024  1.020  0.001  1.030  0.020  1.040  0.045
  1.050  0.065  1.060  0.095  1.070  0.109  1.080  0.131  1.090  0.131
  1.100  0.113  1.110  0.085  1.120  0.057  1.130  0.028  1.140  0.041
  1.150  0.016  1.160 -0.012  1.170 -0.024  1.180 -0.002  1.190  0.005
  1.200  0.007  1.210 -0.021  1.220 -0.049  1.230 -0.068  1.240 -0.084
  1.250 -0.090  1.260 -0.090  1.270 -0.090  1.280 -0.108  1.290 -0.153
  1.300 -0.125  1.310 -0.097  1.320 -0.090  1.330 -0.068  1.340 -0.056
  1.350 -0.046  1.360 -0.046  1.370 -0.046  1.380 -0.046  1.390 -0.046
  1.400 -0.024  1.410 -0.013  1.420 -0.002  1.430 -0.025  1.440 -0.046
  1.450 -0.059  1.460 -0.068  1.470 -0.068  1.480 -0.058  1.490 -0.030
  1.500 -0.002  1.510  0.020  1.520  0.045  1.530  0.083  1.540  0.111
  1.550  0.131  1.560  0.146  1.570  0.153  1.580  0.175  1.590  0.175
  1.600  0.175  1.610  0.197  1.620  0.197  1.630  0.183  1.640  0.134
  1.650  0.082  1.660  0.043  1.670  0.004  1.680  0.020  1.690  0.020
  1.700  0.034  1.710  0.043  1.720  0.020  1.730  0.020  1.740  0.020
  1.750  0.020  1.760 -0.008  1.770 -0.024  1.780 -0.005  1.790 -0.002
  1.800 -0.002  1.810 -0.002  1.820 -0.023  1.830 -0.024  1.840 -0.024
  1.850 -0.024  1.860 -0.025  1.870 -0.054  1.880 -0.054  1.890 -0.066
  1.900 -0.068  1.910 -0.078  1.920 -0.090  1.930 -0.090  1.940 -0.083
  1.950 -0.081  1.960 -0.090  1.970 -0.086  1.980 -0.068  1.990 -0.068
  2.000 -0.068  2.010 -0.068  2.020 -0.055  2.030 -0.046  2.040 -0.024
  2.050 -0.015  2.060 -0.002  2.070  0.020  2.080  0.048  2.090  0.065
  2.100  0.082  2.110  0.063  2.120  0.043  2.130  0.014  2.140 -0.042
  2.150 -0.072  2.160 -0.090  2.170 -0.090  2.180 -0.067  2.190 -0.032
  2.200  0.012  2.210  0.040  2.220  0.046  2.230  0.074  2.240  0.071
  2.250  0.065  2.260  0.093  2.270  0.121  2.280  0.131  2.290  0.131
  2.300  0.122  2.310  0.094  2.320  0.044  2.330 -0.017  2.340 -0.091
  2.350 -0.130  2.360 -0.154  2.370 -0.134  2.380 -0.134  2.390 -0.114
  2.400 -0.085  2.410 -0.068  2.420 -0.085  2.430 -0.090  2.440 -0.090
  2.450 -0.090  2.460 -0.090  2.470 -0.112  2.480 -0.122  2.490 -0.150
  2.500 -0.178  2.510 -0.206  2.520 -0.210  2.530 -0.200  2.540 -0.198
  2.550 -0.169  2.560 -0.156  2.570 -0.135  2.580 -0.112  2.590 -0.100
  2.600 -0.072  2.610 -0.046  2.620 -0.038  2.630 -0.024  2.640 -0.003
  2.650 -0.002  2.660 -0.002  2.670  0.015  2.680  0.043  2.690  0.079
  2.700  0.109  2.710  0.148  2.720  0.153  2.730  0.143  2.740  0.115
  2.750  0.109  2.760  0.081  2.770  0.077  2.780  0.087  2.790  0.087
  2.800  0.087  2.810  0.072  2.820  0.022  2.830 -0.002  2.840 -0.013
  2.850 -0.024  2.860 -0.024  2.870 -0.024  2.880 -0.024  2.890 -0.024
  2.900 -0.050  2.910 -0.078  2.920 -0.090  2.930 -0.111  2.940 -0.090
  2.950 -0.103  2.960 -0.112  2.970 -0.112  2.980 -0.112  2.990 -0.112
  3.000 -0.090  3.010 -0.090  3.020 -0.090  3.030 -0.071  3.040 -0.043
  3.050 -0.024  3.060  0.006  3.070  0.042  3.080  0.075  3.090  0.120
  3.100  0.149  3.110  0.173  3.120  0.161  3.130  0.189  3.140  0.197
  3.150  0.197  3.160  0.197  3.170  0.197  3.180  0.196  3.190  0.168
  3.200  0.153  3.210  0.133  3.220  0.105  3.230  0.096  3.240  0.093
  3.250  0.087  3.260  0.093  3.270  0.109  3.280  0.109  3.290  0.106
  3.300  0.078  3.310  0.035  3.320 -0.022  3.330 -0.056  3.340 -0.113
  3.350 -0.152  3.360 -0.178  3.370 -0.178  3.380 -0.178  3.390 -0.178
  3.400 -0.174  3.410 -0.156  3.420 -0.139  3.430 -0.135  3.440 -0.156
  3.450 -0.156  3.460 -0.156  3.470 -0.156  3.480 -0.146  3.490 -0.118
  3.500 -0.112  3.510 -0.090  3.520 -0.090  3.530 -0.090  3.540 -0.068
  3.550 -0.068  3.560 -0.053  3.570 -0.025  3.580  0.009  3.590  0.054
  3.600  0.100  3.610  0.155  3.620  0.183  3.630  0.211  3.640  0.239
  3.650  0.285  3.660  0.285  3.670  0.285  3.680  0.262  3.690  0.205
  3.700  0.162  3.710  0.114  3.720  0.080  3.730  0.043  3.740  0.043
  3.750  0.043  3.760  0.043  3.770  0.043  3.780  0.061  3.790  0.087
  3.800  0.096  3.810  0.124  3.820  0.152  3.830  0.158  3.840  0.175
  3.850  0.157  3.860  0.151  3.870  0.115  3.880  0.058  3.890  0.043
  3.900  0.012  3.910 -0.024  3.920 -0.040  3.930 -0.069  3.940 -0.090
  3.950 -0.103  3.960 -0.112  3.970 -0.086  3.980 -0.058  3.990 -0.046
  4.000 -0.002  4.010 -0.002  4.020 -0.002  4.030 -0.002  4.040 -0.026
  4.050 -0.055  4.060 -0.068  4.070 -0.089  4.080 -0.090  4.090 -0.090
  4.100 -0.072  4.110 -0.066  4.120 -0.038  4.130 -0.024  4.140 -0.024
  4.150 -0.002  4.160 -0.002  4.170  0.015  4.180  0.021  4.190  0.043
  4.200  0.043  4.210  0.062  4.220  0.068  4.230  0.087  4.240  0.087
  4.250  0.109  4.260  0.109  4.270  0.109  4.280  0.127  4.290  0.133
  4.300  0.162  4.310  0.175  4.320  0.154  4.330  0.142  4.340  0.097
  4.350  0.069  4.360  0.063  4.370  0.043  4.380  0.043  4.390  0.022
  4.400  0.038  4.410  0.020  4.420  0.020  4.430 -0.002  4.440 -0.031
  4.450 -0.046  4.460 -0.065  4.470 -0.093  4.480 -0.122  4.490 -0.150
  4.500 -0.178  4.510 -0.178  4.520 -0.191  4.530 -0.200  4.540 -0.203
  4.550 -0.222  4.560 -0.222  4.570 -0.244  4.580 -0.244  4.590 -0.233
  4.600 -0.222  4.610 -0.222  4.620 -0.214  4.630 -0.200  4.640 -0.180
  4.650 -0.178  4.660 -0.168  4.670 -0.139  4.680 -0.089  4.690 -0.061
  4.700 -0.033  4.710  0.015  4.720  0.094  4.730  0.160  4.740  0.229
  4.750  0.263  4.760  0.314  4.770  0.317  4.780  0.307  4.790  0.307
  4.800  0.307  4.810  0.307  4.820  0.307  4.830  0.302  4.840  0.285
  4.850  0.285  4.860  0.285  4.870  0.285  4.880  0.285  4.890  0.285
  4.900  0.312  4.910  0.330  4.920  0.330  4.930  0.307  4.940  0.300
  4.950  0.259  4.960  0.202  4.970  0.146  4.980  0.080  4.990  0.011
  5.000 -0.046  5.010 -0.118  5.020 -0.146  5.030 -0.175  5.040 -0.225
  5.050 -0.253  5.060 -0.282  5.070 -0.289  5.080 -0.289  5.090 -0.277
  5.100 -0.249  5.110 -0.224  5.120 -0.236  5.130 -0.236  5.140 -0.244
  5.150 -0.244  5.160 -0.244  5.170 -0.261  5.180 -0.266  5.190 -0.266
  5.200 -0.253  5.210 -0.225  5.220 -0.197  5.230 -0.159  5.240 -0.118
  5.250 -0.112  5.260 -0.084  5.270 -0.068  5.280 -0.031  5.290  0.026
  5.300  0.091  5.310  0.146  5.320  0.195  5.330  0.219  5.340  0.208
  5.350  0.179  5.360  0.177  5.370  0.205  5.380  0.233  5.390  0.282
  5.400  0.307  5.410  0.307  5.420  0.307  5.430  0.262  5.440  0.241
  5.450  0.241  5.460  0.222  5.470  0.219  5.480  0.209  5.490  0.197
  5.500  0.175  5.510  0.175  5.520  0.163  5.530  0.116  5.540  0.059
  5.550  0.012  5.560 -0.017  5.570 -0.045  5.580 -0.068  5.590 -0.079
  5.600 -0.108  5.610 -0.136  5.620 -0.164  5.630 -0.178  5.640 -0.178
  5.650 -0.200  5.660 -0.200  5.670 -0.200  5.680 -0.178  5.690 -0.178
  5.700 -0.165  5.710 -0.156  5.720 -0.156  5.730 -0.166  5.740 -0.178
  5.750 -0.156  5.760 -0.156  5.770 -0.156  5.780 -0.138  5.790 -0.129
  5.800 -0.081  5.810 -0.053  5.820 -0.046  5.830 -0.018  5.840  0.010
  5.850  0.038  5.860  0.044  5.870  0.065  5.880  0.079  5.890  0.127
  5.900  0.135  5.910  0.153  5.920  0.153  5.930  0.130  5.940  0.095
  5.950  0.065  5.960  0.045  5.970  0.043  5.980  0.043  5.990  0.043
  6.000  0.065  6.010  0.065  6.020  0.052  6.030  0.024  6.040 -0.002
  6.050 -0.010  6.060 -0.024  6.070 -0.002  6.080  0.004  6.090  0.020
  6.100  0.020  6.110  0.019  6.120 -0.010  6.130 -0.038  6.140 -0.046
  6.150 -0.068  6.160 -0.068  6.170 -0.068  6.180 -0.068  6.190 -0.075
  6.200 -0.090  6.210 -0.109  6.220 -0.112  6.230 -0.122  6.240 -0.134
  6.250 -0.134  6.260 -0.106  6.270 -0.078  6.280 -0.049  6.290 -0.018
  6.300  0.029  6.310  0.058  6.320  0.043  6.330  0.048  6.340  0.076
  6.350  0.087  6.360  0.107  6.370  0.095  6.380  0.109  6.390  0.109
  6.400  0.091  6.410  0.109  6.420  0.109  6.430  0.132  6.440  0.153
  6.450  0.153  6.460  0.153  6.470  0.149  6.480  0.131  6.490  0.115
  6.500  0.109  6.510  0.109  6.520  0.109  6.530  0.109  6.540  0.087
  6.550  0.087  6.560  0.072  6.570  0.043  6.580  0.020  6.590  0.020
  6.600  0.020  6.610 -0.002  6.620  0.006  6.630  0.020  6.640  0.000
  6.650 -0.002  6.660 -0.012  6.670 -0.024  6.680 -0.024  6.690 -0.024
  6.700 -0.024  6.710 -0.043  6.720 -0.046  6.730 -0.046  6.740 -0.046
  6.750 -0.046  6.760 -0.024  6.770 -0.024  6.780 -0.024  6.790 -0.024
  6.800 -0.024  6.810 -0.024  6.820 -0.002  6.830 -0.007  6.840 -0.024
  6.850 -0.006  6.860 -0.002  6.870 -0.002  6.880 -0.002  6.890 -0.022
  6.900 -0.046  6.910 -0.046  6.920 -0.046  6.930 -0.069  6.940 -0.083
  6.950 -0.068  6.960 -0.048  6.970 -0.024  6.980 -0.014  6.990  0.030
  7.000  0.065  7.010  0.093  7.020  0.121  7.030  0.131  7.040  0.131
  7.050  0.122  7.060  0.109  7.070  0.088  7.080  0.032  7.090 -0.025
  7.100 -0.063  7.110 -0.092  7.120 -0.112  7.130 -0.098  7.140 -0.049
  7.150 -0.010  7.160  0.043  7.170  0.059  7.180  0.109  7.190  0.116
  7.200  0.144  7.210  0.153  7.220  0.131  7.230  0.121  7.240  0.109
  7.250  0.109  7.260  0.087  7.270  0.074  7.280  0.065  7.290  0.062
  7.300  0.043  7.310  0.028  7.320  0.042  7.330  0.043  7.340  0.043
  7.350  0.043  7.360  0.020  7.370  0.020  7.380  0.035  7.390  0.022
  7.400  0.016  7.410 -0.012  7.420 -0.040  7.430 -0.091  7.440 -0.112
  7.450 -0.112  7.460 -0.112  7.470 -0.108  7.480 -0.090  7.490 -0.074
  7.500 -0.046  7.510 -0.046  7.520 -0.046  7.530 -0.046  7.540 -0.024
  7.550 -0.024  7.560 -0.024  7.570 -0.024  7.580 -0.024  7.590 -0.012
  7.600 -0.002  7.610 -0.002  7.620 -0.002  7.630 -0.016  7.640 -0.024
  7.650 -0.024  7.660 -0.024  7.670 -0.024  7.680 -0.024  7.690 -0.017
  7.700 -0.002  7.710  0.018  7.720  0.043  7.730  0.052  7.740  0.081
  7.750  0.087  7.760  0.087  7.770  0.074  7.780  0.046  7.790  0.018
  7.800 -0.010  7.810 -0.039  7.820 -0.046  7.830 -0.040  7.840 -0.012
  7.850 -0.002  7.860 -0.002  7.870 -0.010  7.880 -0.024  7.890 -0.044
  7.900 -0.068  7.910 -0.078  7.920 -0.090  7.930 -0.091  7.940 -0.112
  7.950 -0.125  7.960 -0.153  7.970 -0.156  7.980 -0.156  7.990 -0.156
  8.000 -0.156  8.010 -0.150  8.020 -0.122  8.030 -0.093  8.040 -0.090
  8.050 -0.090  8.060 -0.090  8.070 -0.090  8.080 -0.090  8.090 -0.090
  8.100 -0.090  8.110 -0.088  8.120 -0.052  8.130 -0.010  8.140  0.019
  8.150  0.051  8.160  0.108  8.170  0.131  8.180  0.153  8.190  0.153
  8.200  0.140  8.210  0.131  8.220  0.131  8.230  0.131  8.240  0.131
  8.250  0.131  8.260  0.125  8.270  0.096  8.280  0.068  8.290  0.020
  8.300  0.012  8.310 -0.002  8.320  0.041  8.330  0.048  8.340  0.076
  8.350  0.087  8.360  0.111  8.370  0.131  8.380  0.131  8.390  0.131
  8.400  0.082  8.410  0.054  8.420  0.009  8.430 -0.025  8.440 -0.075
  8.450 -0.103  8.460 -0.131  8.470 -0.156  8.480 -0.156  8.490 -0.156
  8.500 -0.134  8.510 -0.100  8.520 -0.068  8.530 -0.049  8.540  0.001
  8.550  0.020  8.560  0.005  8.570 -0.023  8.580 -0.029  8.590 -0.057
  8.600 -0.068  8.610 -0.068  8.620 -0.068  8.630 -0.054  8.640 -0.046
  8.650 -0.037  8.660  0.020  8.670  0.059  8.680  0.088  8.690  0.130
  8.700  0.201  8.710  0.239  8.720  0.267  8.730  0.295  8.740  0.307
  8.750  0.285  8.760  0.279  8.770  0.251  8.780  0.223  8.790  0.194
  8.800  0.166  8.810  0.138  8.820  0.110  8.830  0.109  8.840  0.120
  8.850  0.113  8.860  0.129  8.870  0.109  8.880  0.095  8.890  0.066
  8.900  0.043  8.910  0.043  8.920  0.043  8.930  0.020  8.940  0.013
  8.950 -0.015  8.960 -0.043  8.970 -0.064  8.980 -0.046  8.990 -0.046
  9.000 -0.068  9.010 -0.052  9.020 -0.080  9.030 -0.090  9.040 -0.139
  9.050 -0.178  9.060 -0.193  9.070 -0.179  9.080 -0.178  9.090 -0.167
  9.100 -0.156  9.110 -0.132  9.120 -0.104  9.130 -0.076  9.140 -0.068
  9.150 -0.046  9.160 -0.035  9.170  0.010  9.180  0.043  9.190  0.058
  9.200  0.029  9.210  0.001  9.220 -0.002  9.230 -0.002  9.240  0.014
  9.250  0.020  9.260  0.020  9.270  0.020  9.280  0.020  9.290  0.040
  9.300  0.012  9.310 -0.002  9.320 -0.023  9.330 -0.002  9.340 -0.002
  9.350 -0.002  9.360  0.019  9.370 -0.017  9.380 -0.046  9.390 -0.066
  9.400 -0.077  9.410 -0.123  9.420 -0.134  9.430 -0.134  9.440 -0.134
  9.450 -0.121  9.460 -0.093  9.470 -0.090  9.480 -0.090  9.490 -0.106
  9.500 -0.112  9.510 -0.106  9.520 -0.090  9.530 -0.071  9.540 -0.065
  9.550 -0.046  9.560 -0.031  9.570 -0.002  9.580  0.004  9.590  0.032
  9.600  0.060  9.610  0.065  9.620  0.065  9.630  0.065  9.640  0.065
  9.650  0.069  9.660  0.087  9.670  0.087  9.680  0.087  9.690  0.080
  9.700  0.078  9.710  0.067  9.720  0.068  9.730  0.087  9.740  0.087
  9.750  0.109  9.760  0.115  9.770  0.131  9.780  0.149  9.790  0.153
  9.800  0.162  9.810  0.175  9.820  0.175  9.830  0.175  9.840  0.164
  9.850  0.135  9.860  0.131  9.870  0.139  9.880  0.153  9.890  0.133
  9.900  0.126  9.910  0.109  9.920  0.126  9.930  0.130  9.940  0.109
  9.950  0.109  9.960  0.089  9.970  0.061  9.980  0.052  9.990  0.112
 10.000  0.131 10.010  0.153 10.020  0.153 10.030  0.134 10.040  0.109
 10.050  0.109 10.060  0.109 10.070  0.088 10.080  0.087 10.090  0.087
 10.100  0.051 10.110  0.041 10.120  0.020 10.130  0.020 10.140  0.000
 10.150 -0.002 10.160 -0.012 10.170 -0.024 10.180 -0.025 10.190 -0.046
 10.200 -0.059 10.210 -0.068 10.220 -0.049 10.230 -0.068 10.240 -0.052
 10.250 -0.046 10.260 -0.024 10.270 -0.024 10.280 -0.024 10.290 -0.002
 10.300 -0.002 10.310 -0.002 10.320 -0.002 10.330 -0.002 10.340  0.010
 10.350  0.020 10.360  0.000 10.370  0.020 10.380  0.035 10.390  0.043
 10.400  0.025 10.410  0.043 10.420  0.026 10.430  0.020 10.440  0.013
 10.450 -0.015 10.460 -0.024 10.470 -0.002 10.480 -0.002 10.490 -0.002
 10.500 -0.002 10.510 -0.002 10.520 -0.002 10.530 -0.002 10.540 -0.004
 10.550 -0.024 10.560 -0.009 10.570 -0.023 10.580 -0.051 10.590 -0.068
 10.600 -0.085 10.610 -0.092 10.620 -0.096 10.630 -0.068 10.640 -0.068
 10.650 -0.046 10.660 -0.046 10.670 -0.046 10.680 -0.045 10.690 -0.024
 10.700 -0.024 10.710 -0.004 10.720 -0.024 10.730 -0.033 10.740 -0.046
 10.750 -0.068 10.760 -0.046 10.770 -0.046 10.780 -0.064 10.790 -0.070
 10.800 -0.090 10.810 -0.105 10.820 -0.112 10.830 -0.107 10.840 -0.090
 10.850 -0.072 10.860 -0.046 10.870 -0.038 10.880 -0.010 10.890 -0.002
 10.900  0.003 10.910  0.020 10.920  0.020 10.930 -0.002 10.940 -0.009
 10.950 -0.037 10.960 -0.046 10.970 -0.071 10.980 -0.090 10.990 -0.090
 11.000 -0.090 11.010 -0.090 11.020 -0.065 11.030 -0.027 11.040  0.001
 11.050  0.020 11.060  0.020 11.070  0.042 11.080  0.065 11.090  0.065
 11.100  0.065 11.110  0.041 11.120  0.013 11.130 -0.002 11.140 -0.002
 11.150  0.020 11.160  0.020 11.170  0.020 11.180  0.020 11.190  0.013
 11.200 -0.002 11.210 -0.002 11.220  0.002 11.230  0.020 11.240  0.020
 11.250 -0.002 11.260 -0.024 11.270 -0.036 11.280 -0.046 11.290 -0.068
 11.300 -0.068 11.310 -0.068 11.320 -0.089 11.330 -0.085 11.340 -0.056
 11.350 -0.046 11.360 -0.046 11.370 -0.046 11.380 -0.046 11.390 -0.046
 11.400 -0.041 11.410 -0.013 11.420 -0.002 11.430 -0.002 11.440 -0.009
 11.450 -0.024 11.460 -0.024 11.470 -0.046 11.480 -0.036 11.490 -0.008
 11.500 -0.002 11.510 -0.002 11.520  0.011 11.530  0.020 11.540  0.023
 11.550  0.051 11.560  0.065 11.570  0.065 11.580  0.065 11.590  0.065
 11.600  0.082 11.610  0.085 11.620  0.065 11.630  0.065 11.640  0.065
 11.650  0.060 11.660  0.032 11.670  0.020 11.680  0.020 11.690  0.020
 11.700  0.034 11.710  0.043 11.720  0.043 11.730  0.043 11.740  0.043
 11.750  0.043 11.760  0.014 11.770  0.011 11.780  0.020 11.790  0.043
 11.800  0.043 11.810  0.058 11.820  0.065 11.830  0.065 11.840  0.076
 11.850  0.087 11.860  0.087 11.870  0.079 11.880  0.079 11.890  0.087
 11.900  0.065 11.910  0.065 11.920  0.065 11.930  0.064 11.940  0.035
 11.950  0.020 11.960  0.020 11.970  0.017 11.980 -0.002 11.990  0.014
 12.000 -0.002 12.010 -0.002 12.020 -0.002 12.030 -0.002 12.040 -0.002
 12.050 -0.002 12.060 -0.017 12.070 -0.045 12.080 -0.051 12.090 -0.068
 12.100 -0.085 12.110 -0.088 12.120 -0.068 12.130 -0.068 12.140 -0.068
 12.150 -0.063 12.160 -0.046 12.170 -0.046 12.180 -0.024 12.190 -0.024
 12.200 -0.010 12.210 -0.021 12.220 -0.024 12.230 -0.024 12.240 -0.008
 12.250 -0.024 12.260 -0.040 12.270 -0.036 12.280 -0.046 12.290 -0.043
 12.300 -0.015 12.310 -0.002 12.320 -0.002 12.330  0.020 12.340  0.020
 12.350  0.020 12.360  0.020 12.370  0.013 12.380  0.013 12.390  0.020
 12.400  0.020 12.410  0.020 12.420  0.020 12.430  0.043 12.440  0.050
 12.450  0.078 12.460  0.106 12.470  0.109 12.480  0.109 12.490  0.093
 12.500  0.087 12.510  0.087 12.520  0.087 12.530  0.068 12.540  0.065
 12.550  0.065 12.560  0.050 12.570  0.021 12.580  0.020 12.590  0.009
 12.600 -0.002 12.610 -0.024 12.620 -0.024 12.630 -0.038 12.640 -0.025
 12.650 -0.024 12.660 -0.024 12.670 -0.024 12.680 -0.002 12.690 -0.002
 12.700 -0.002 12.710 -0.002 12.720  0.024 12.730  0.033 12.740  0.020
 12.750  0.043 12.760  0.043 12.770  0.043 12.780  0.043 12.790  0.043
 12.800  0.034 12.810  0.020 12.820  0.020 12.830  0.015 12.840 -0.013
 12.850 -0.024 12.860 -0.044 12.870 -0.032 12.880 -0.032 12.890 -0.024
 12.900 -0.002 12.910 -0.002 12.920 -0.002 12.930 -0.002 12.940  0.005
 12.950  0.020 12.960  0.040 12.970  0.043 12.980  0.033 12.990  0.020
 13.000 -0.002 13.010 -0.002 13.020  0.011 13.030  0.002 13.040 -0.002
 13.050 -0.002 13.060 -0.002 13.070 -0.002 13.080 -0.002 13.090 -0.002
 13.100 -0.002 13.110  0.000 13.120  0.028 13.130  0.057 13.140  0.065
 13.150  0.091 13.160  0.098 13.170  0.087 13.180  0.086 13.190  0.065
 13.200  0.065 13.210  0.065 13.220  0.065 13.230  0.065 13.240  0.065
 13.250  0.065 13.260  0.065 13.270  0.065 13.280  0.065 13.290  0.065
 13.300  0.065 13.310  0.065 13.320  0.065 13.330  0.087 13.340  0.087
 13.350  0.087 13.360  0.087 13.370  0.079 13.380  0.065 13.390  0.065
 13.400  0.043 13.410  0.032 13.420  0.020 13.430 -0.002 13.440 -0.009
 13.450 -0.037 13.460 -0.046 13.470 -0.049 13.480 -0.078 13.490 -0.090
 13.500 -0.090 13.510 -0.112 13.520 -0.112 13.530 -0.131 13.540 -0.109
 13.550 -0.090 13.560 -0.090 13.570 -0.090 13.580 -0.085 13.590 -0.068
 13.600 -0.068 13.610 -0.068 13.620 -0.068 13.630 -0.068 13.640 -0.088
 13.650 -0.068 13.660 -0.068 13.670 -0.051 13.680 -0.045 13.690 -0.024
 13.700 -0.010 13.710 -0.002 13.720  0.024 13.730  0.043 13.740  0.058
 13.750  0.065 13.760  0.093 13.770  0.109 13.780  0.127 13.790  0.131
 13.800  0.140 13.810  0.138 13.820  0.110 13.830  0.103 13.840  0.087
 13.850  0.069 13.860  0.063 13.870  0.043 13.880  0.043 13.890  0.043
 13.900  0.043 13.910  0.043 13.920  0.059 13.930  0.065 13.940  0.072
 13.950  0.087 13.960  0.067 13.970  0.043 13.980  0.033 13.990  0.005
 14.000 -0.024 14.010 -0.046 14.020 -0.046 14.030 -0.046 14.040 -0.046
 14.050 -0.046 14.060 -0.046 14.070 -0.046 14.080 -0.046 14.090 -0.034
 14.100 -0.024 14.110 -0.046 14.120 -0.046 14.130 -0.046 14.140 -0.046
 14.150 -0.068 14.160 -0.068 14.170 -0.068 14.180 -0.068 14.190 -0.061
 14.200 -0.033 14.210 -0.024 14.220  0.002 14.230  0.020 14.240  0.036
 14.250  0.065 14.260  0.087 14.270  0.087 14.280  0.087 14.290  0.065
 14.300  0.056 14.310  0.043 14.320  0.043 14.330  0.020 14.340  0.009
 14.350 -0.002 14.360 -0.002 14.370 -0.002 14.380 -0.002 14.390 -0.002
 14.400 -0.002 14.410 -0.002 14.420  0.015 14.430  0.020 14.440  0.020
 14.450  0.007 14.460 -0.002 14.470 -0.002 14.480 -0.002 14.490 -0.002
 14.500 -0.002 14.510 -0.002 14.520 -0.002 14.530 -0.020 14.540 -0.024
 14.550 -0.015 14.560 -0.002 14.570 -0.002 14.580 -0.018 14.590  0.010
 14.600  0.020 14.610  0.020 14.620  0.020 14.630  0.020 14.640  0.020
 14.650  0.016 14.660 -0.012 14.670 -0.024 14.680 -0.046 14.690 -0.046
 14.700 -0.046 14.710 -0.026 14.720  0.002 14.730  0.020 14.740  0.020
 14.750  0.020 14.760  0.020 14.770  0.020 14.780  0.002 14.790 -0.002
 14.800 -0.002 14.810 -0.002 14.820 -0.023 14.830 -0.029 14.840 -0.046
 14.850 -0.046 14.860 -0.024 14.870 -0.024 14.880 -0.010 14.890 -0.002
 14.900 -0.002 14.910 -0.002 14.920  0.015 14.930 -0.002 14.940 -0.002
 14.950 -0.002 14.960 -0.002 14.970 -0.005 14.980 -0.014 14.990 -0.002
 15.000 -0.002 15.010 -0.002 15.020 -0.002 15.030 -0.002 15.040  0.001
 15.050  0.029 15.060  0.043 15.070  0.043 15.080  0.020 15.090  0.009
 15.100 -0.002 15.110 -0.003 15.120 -0.024 15.130 -0.024 15.140 -0.044
 15.150 -0.046 15.160 -0.046 15.170 -0.063 15.180 -0.046 15.190 -0.046
 15.200 -0.046 15.210 -0.065 15.220 -0.071 15.230 -0.090 15.240 -0.074
 15.250 -0.068 15.260 -0.074 15.270 -0.078 15.280 -0.049 15.290 -0.068
 15.300 -0.068 15.310 -0.083 15.320 -0.090 15.330 -0.068 15.340 -0.068
 15.350 -0.068 15.360 -0.066 15.370 -0.038 15.380 -0.024 15.390 -0.024
 15.400 -0.024 15.410 -0.024 15.420 -0.024 15.430 -0.024 15.440 -0.017
 15.450 -0.002 15.460 -0.002 15.470 -0.020 15.480 -0.002 15.490 -0.002
 15.500  0.020 15.510  0.020 15.520  0.020 15.530  0.020 15.540  0.018
 15.550 -0.002 15.560  0.013 15.570  0.020 15.580  0.043 15.590  0.043
 15.600  0.043 15.610  0.065 15.620  0.073 15.630  0.073 15.640  0.044
 15.650  0.043 15.660  0.043 15.670  0.043 15.680  0.020 15.690  0.020
 15.700  0.007 15.710 -0.021 15.720 -0.024 15.730 -0.024 15.740 -0.024
 15.750 -0.024 15.760 -0.024 15.770 -0.024 15.780 -0.024 15.790 -0.002
 15.800 -0.002 15.810 -0.002 15.820 -0.023 15.830 -0.024 15.840 -0.035
 15.850 -0.046 15.860 -0.068 15.870 -0.068 15.880 -0.068 15.890 -0.068
 15.900 -0.046 15.910 -0.046 15.920 -0.046 15.930 -0.023 15.940 -0.002
 15.950  0.012 15.960  0.020 15.970  0.017 15.980 -0.002 15.990  0.014
 16.000  0.020 16.010  0.014 16.020 -0.002 16.030 -0.020 16.040 -0.021
 16.050 -0.002 16.060  0.013 16.070  0.020 16.080  0.043 16.090  0.054
 16.100  0.065 16.110  0.087 16.120  0.087 16.130  0.101 16.140  0.109
 16.150  0.109 16.160  0.098 16.170  0.087 16.180  0.065 16.190  0.058
 16.200  0.043 16.210  0.023 16.220  0.017 16.230 -0.002 16.240 -0.002
 16.250 -0.002 16.260 -0.024 16.270 -0.024 16.280 -0.024 16.290 -0.024
 16.300 -0.033 16.310 -0.046 16.320 -0.025 16.330 -0.024 16.340 -0.035
 16.350 -0.046 16.360 -0.024 16.370 -0.024 16.380 -0.038 16.390 -0.025
 16.400 -0.046 16.410 -0.046 16.420 -0.063 16.430 -0.046 16.440 -0.039
 16.450 -0.024 16.460 -0.024 16.470 -0.024 16.480 -0.014 16.490 -0.002
 16.500 -0.002 16.510 -0.008 16.520 -0.024 16.530 -0.024 16.540 -0.026
 16.550 -0.037 16.560 -0.009 16.570 -0.002 16.580 -0.002 16.590 -0.002
 16.600 -0.002 16.610 -0.002 16.620 -0.002 16.630  0.013 16.640  0.020
 16.650 -0.002 16.660 -0.002 16.670 -0.018 16.680 -0.002 16.690 -0.002
 16.700 -0.002 16.710  0.018 16.720  0.043 16.730  0.052 16.740  0.049
 16.750  0.043 16.760  0.020 16.770  0.020 16.780  0.020 16.790  0.020
 16.800  0.020 16.810  0.005 16.820  0.020 16.830  0.037 16.840  0.032
 16.850  0.043 16.860  0.043 16.870  0.043 16.880  0.043 16.890  0.043
 16.900  0.065 16.910  0.065 16.920  0.065 16.930  0.043 16.940  0.043
 16.950  0.043 16.960  0.043 16.970  0.039 16.980  0.011 16.990 -0.002
 17.000 -0.002 17.010  0.020 17.020  0.008 17.030 -0.020 17.040 -0.046
 17.050 -0.055 17.060 -0.098 17.070 -0.112 17.080 -0.112 17.090 -0.112
 17.100 -0.094 17.110 -0.090 17.120 -0.090 17.130 -0.076 17.140 -0.068
 17.150 -0.085 17.160 -0.057 17.170 -0.046 17.180 -0.046 17.190 -0.046
 17.200 -0.046 17.210 -0.065 17.220 -0.071 17.230 -0.080 17.240 -0.084
 17.250 -0.068 17.260 -0.040 17.270 -0.024 17.280 -0.005 17.290 -0.021
 17.300  0.007 17.310  0.020 17.320  0.063 17.330  0.065 17.340  0.065
 17.350  0.082 17.360  0.085 17.370  0.065 17.380  0.065 17.390  0.065
 17.400  0.065 17.410  0.065 17.420  0.048 17.430  0.042 17.440  0.020
 17.450  0.007 17.460 -0.002 17.470 -0.005 17.480 -0.024 17.490 -0.024
 17.500 -0.024 17.510 -0.024 17.520 -0.024 17.530 -0.024 17.540 -0.024
 17.550 -0.024 17.560 -0.039 17.570 -0.067 17.580 -0.051 17.590 -0.079
 17.600 -0.090 17.610 -0.090 17.620 -0.098 17.630 -0.112 17.640 -0.092
 17.650 -0.090 17.660 -0.100 17.670 -0.112 17.680 -0.111 17.690 -0.083
 17.700 -0.068 17.710 -0.048 17.720 -0.068 17.730 -0.058 17.740 -0.046
 17.750 -0.068 17.760 -0.068 17.770 -0.068 17.780 -0.049 17.790 -0.043
 17.800 -0.024 17.810 -0.009 17.820  0.020 17.830  0.048 17.840  0.053
 17.850  0.025 17.860  0.020 17.870  0.028 17.880  0.043 17.890  0.043
 17.900  0.020 17.910  0.010 17.920 -0.018 17.930 -0.046 17.940 -0.046
 17.950 -0.059 17.960 -0.068 17.970 -0.064 17.980 -0.046 17.990 -0.046
 18.000 -0.046 18.010 -0.017 18.020 -0.002 18.030 -0.002 18.040  0.020
 18.050  0.012 18.060 -0.002 18.070 -0.002 18.080 -0.024 18.090 -0.024
 18.100 -0.024 18.110 -0.024 18.120 -0.024 18.130 -0.024 18.140 -0.003
 18.150 -0.002 18.160 -0.002 18.170 -0.002 18.180  0.020 18.190 -0.002
 18.200 -0.002 18.210  0.018 18.220  0.020 18.230  0.020 18.240  0.036
 18.250  0.043 18.260  0.020 18.270  0.020 18.280  0.020 18.290 -0.002
 18.300 -0.002 18.310  0.013 18.320  0.020 18.330  0.020 18.340  0.020
 18.350  0.038 18.360  0.043 18.370  0.043 18.380  0.043 18.390  0.022
 18.400 -0.002 18.410 -0.012 18.420 -0.040 18.430 -0.047 18.440 -0.075
 18.450 -0.090 18.460 -0.090 18.470 -0.090 18.480 -0.090 18.490 -0.090
 18.500 -0.090 18.510 -0.068 18.520 -0.068 18.530 -0.049 18.540 -0.043
 18.550 -0.024 18.560 -0.039 18.570 -0.046 18.580 -0.051 18.590 -0.056
 18.600 -0.046 18.610 -0.024 18.620 -0.016 18.630  0.013 18.640  0.020
 18.650 -0.002 18.660  0.009 18.670  0.037 18.680  0.020 18.690  0.020
 18.700  0.020 18.710  0.040 18.720  0.046 18.730  0.065 18.740  0.065
 18.750  0.043 18.760  0.043 18.770  0.043 18.780  0.043 18.790  0.043
 18.800  0.043 18.810  0.028 18.820  0.020 18.830 -0.002 18.840 -0.002
 18.850 -0.002 18.860  0.000 18.870  0.020 18.880  0.006 18.890 -0.002
 18.900 -0.002 18.910 -0.002 18.920 -0.002 18.930 -0.001 18.940  0.020
 18.950  0.020 18.960  0.020 18.970  0.039 18.980  0.020 18.990  0.005
 19.000 -0.024 19.010 -0.030 19.020 -0.046 19.030 -0.046 19.040 -0.024
 19.050 -0.024 19.060 -0.024 19.070 -0.002 19.080  0.026 19.090  0.054
 19.100  0.065 19.110  0.087 19.120  0.087 19.130  0.087 19.140  0.066
 19.150  0.060 19.160  0.043 19.170  0.043 19.180  0.020 19.190 -0.002
 19.200 -0.002 19.210 -0.021 19.220 -0.024 19.230 -0.024 19.240 -0.024
 19.250 -0.024 19.260 -0.002 19.270 -0.002 19.280  0.017 19.290  0.020
 19.300  0.020 19.310  0.035 19.320  0.043 19.330 -0.002 19.340 -0.013
 19.350 -0.041 19.360 -0.070 19.370 -0.090 19.380 -0.104 19.390 -0.112
 19.400 -0.108 19.410 -0.090 19.420 -0.090 19.430 -0.068 19.440 -0.068
 19.450 -0.068 19.460 -0.068 19.470 -0.046 19.480 -0.036 19.490 -0.040
 19.500 -0.046 19.510 -0.030 19.520 -0.033 19.530 -0.024 19.540 -0.004
 19.550 -0.024 19.560 -0.024 19.570 -0.024 19.580 -0.024 19.590 -0.024
 19.600 -0.024 19.610 -0.024 19.620 -0.024 19.630 -0.038 19.640 -0.025
 19.650  0.003 19.660  0.031 19.670  0.059 19.680  0.066 19.690  0.087
 19.700  0.087 19.710  0.087 19.720  0.087 19.730  0.087 19.740  0.071
 19.750  0.065 19.760  0.036 19.770  0.020 19.780  0.002 19.790 -0.026
 19.800 -0.055 19.810 -0.068 19.820 -0.068 19.830 -0.068 19.840 -0.068
 19.850 -0.050 19.860 -0.046 19.870 -0.046 19.880 -0.046 19.890 -0.046
 19.900 -0.046 19.910 -0.035 19.920 -0.024 19.930 -0.047 19.940 -0.068
 19.950 -0.055 19.960 -0.046 19.970 -0.024 19.980 -0.033 19.990 -0.030
 20.000 -0.002 20.010  0.005 20.020  0.020 20.030  0.039 20.040  0.043
 20.050  0.034 20.060  0.020 20.070 -0.001 20.080  0.004 20.090  0.020
 20.100  0.020 20.110  0.020 20.120  0.020 20.130  0.020 20.140  0.020
 20.150  0.020 20.160  0.020 20.170  0.037 20.180  0.043 20.190  0.065
 20.200  0.078 20.210  0.067 20.220  0.039 20.230  0.020 20.240  0.005
 20.250 -0.002 20.260 -0.030 20.270 -0.046 20.280 -0.027 20.290 -0.026
 20.300 -0.055 20.310 -0.068 20.320 -0.068 20.330 -0.068 20.340 -0.068
 20.350 -0.068 20.360 -0.068 20.370 -0.068 20.380 -0.068 20.390 -0.048
 20.400 -0.050 20.410 -0.068 20.420 -0.068 20.430 -0.068 20.440 -0.075
 20.450 -0.090 20.460 -0.070 20.470 -0.068 20.480 -0.078 20.490 -0.106
 20.500 -0.112 20.510 -0.112 20.520 -0.100 20.530 -0.071 20.540 -0.043
 20.550 -0.024 20.560 -0.009 20.570 -0.002 20.580  0.004 20.590  0.009
 20.600 -0.002 20.610 -0.002 20.620 -0.002 20.630 -0.016 20.640 -0.044
 20.650 -0.046 20.660 -0.035 20.670 -0.040 20.680 -0.046 20.690 -0.046
 20.700 -0.046 20.710 -0.046 20.720 -0.024 20.730 -0.024 20.740 -0.008
 20.750 -0.002 20.760  0.020 20.770  0.020 20.780  0.020 20.790  0.020
 20.800  0.020 20.810  0.020 20.820 -0.001 20.830 -0.002 20.840 -0.002
 20.850 -0.002 20.860 -0.002 20.870 -0.002 20.880 -0.002 20.890 -0.002
 20.900 -0.024 20.910 -0.024 20.920 -0.040 20.930 -0.046 20.940 -0.046
 20.950 -0.046 20.960 -0.046 20.970 -0.046 20.980 -0.046 20.990 -0.046
 21.000 -0.068 21.010 -0.068 21.020 -0.055 21.030 -0.046 21.040 -0.043
 21.050 -0.015 21.060 -0.002 21.070 -0.002 21.080 -0.002 21.090 -0.002
 21.100 -0.002 21.110 -0.024 21.120 -0.024 21.130 -0.024 21.140 -0.024
 21.150 -0.024 21.160 -0.024 21.170 -0.007 21.180 -0.002 21.190 -0.002
 21.200 -0.002 21.210 -0.002 21.220  0.024 21.230  0.033 21.240  0.020
 21.250  0.020 21.260  0.043 21.270  0.043 21.280  0.043 21.290  0.043
 21.300  0.043 21.310  0.043 21.320  0.021 21.330 -0.002 21.340 -0.013
 21.350 -0.024 21.360 -0.046 21.370 -0.046 21.380 -0.046 21.390 -0.066
 21.400 -0.046 21.410 -0.046 21.420 -0.029 21.430 -0.024 21.440 -0.024
 21.450 -0.024 21.460 -0.043 21.470 -0.042 21.480 -0.024 21.490 -0.024
 21.500 -0.024 21.510 -0.030 21.520 -0.046 21.530 -0.046 21.540 -0.065
 21.550 -0.055 21.560 -0.068 21.570 -0.068 21.580 -0.024 21.590 -0.012
 21.600 -0.002 21.610 -0.002 21.620 -0.002 21.630 -0.002 21.640 -0.002
 21.650 -0.024 21.660 -0.024 21.670 -0.024 21.680 -0.025 21.690 -0.046
 21.700 -0.046 21.710 -0.046 21.720 -0.046 21.730 -0.046 21.740 -0.046
 21.750 -0.046 21.760 -0.040 21.770 -0.024 21.780 -0.005 21.790  0.001
 21.800  0.012 21.810 -0.002 21.820 -0.002 21.830 -0.002 21.840 -0.002
 21.850 -0.019 21.860 -0.024 21.870 -0.024 21.880 -0.024 21.890 -0.003
 21.900 -0.002 21.910 -0.002 21.920 -0.002 21.930  0.020 21.940  0.013
 21.950 -0.002 21.960 -0.021 21.970 -0.046 21.980 -0.055 21.990 -0.052
 22.000 -0.024 22.010 -0.046 22.020 -0.046 22.030 -0.027 22.040 -0.043
 22.050 -0.024 22.060 -0.024 22.070 -0.024 22.080 -0.024 22.090 -0.024
 22.100 -0.006 22.110 -0.002 22.120 -0.002 22.130 -0.002 22.140  0.019
 22.150  0.043 22.160  0.032 22.170  0.020 22.180  0.020 22.190  0.020
 22.200  0.020 22.210  0.020 22.220  0.020 22.230  0.030 22.240  0.043
 22.250  0.020 22.260 -0.002 22.270 -0.002 22.280 -0.002 22.290 -0.002
 22.300 -0.002 22.310 -0.002 22.320 -0.023 22.330 -0.024 22.340 -0.024
 22.350 -0.024 22.360 -0.046 22.370 -0.054 22.380 -0.068 22.390 -0.068
 22.400 -0.090 22.410 -0.090 22.420 -0.073 22.430 -0.067 22.440 -0.039
 22.450 -0.024 22.460 -0.024 22.470 -0.002 22.480 -0.002 22.490  0.014
 22.500  0.020 22.510  0.020 22.520  0.020 22.530  0.020 22.540  0.020
 22.550  0.020 22.560  0.020 22.570  0.020 22.580  0.026 22.590  0.054
 22.600  0.065 22.610  0.065 22.620  0.065 22.630  0.079 22.640  0.087
 22.650  0.065 22.660  0.054 22.670  0.043 22.680  0.064 22.690  0.043
 22.700  0.043 22.710  0.043 22.720  0.020 22.730  0.020 22.740  0.005
 22.750 -0.002 22.760 -0.002 22.770 -0.002 22.780 -0.002 22.790 -0.004
 22.800 -0.033 22.810 -0.046 22.820 -0.046 22.830 -0.046 22.840 -0.057
 22.850 -0.068 22.860 -0.088 22.870 -0.068 22.880 -0.068 22.890 -0.048
 22.900 -0.024 22.910 -0.024 22.920 -0.024 22.930 -0.024 22.940 -0.017
 22.950  0.012 22.960  0.020 22.970  0.046 22.980  0.065 22.990  0.065
 23.000  0.065 23.010  0.065 23.020  0.052 23.030  0.043 23.040  0.062
 23.050  0.043 23.060  0.043 23.070  0.043 23.080  0.037 23.090  0.032
 23.100  0.043 23.110  0.043 23.120  0.035 23.130  0.020 23.140  0.020
 23.150  0.020 23.160  0.020 23.170  0.020 23.180  0.020 23.190  0.013
 23.200 -0.002 23.210 -0.021 23.220 -0.042 23.230 -0.033 23.240 -0.046
 23.250 -0.068 23.260 -0.068 23.270 -0.068 23.280 -0.049 23.290 -0.046
 23.300 -0.046 23.310 -0.031 23.320 -0.024 23.330  0.004 23.340  0.020
 23.350  0.020 23.360  0.022 23.370  0.043 23.380  0.043 23.390  0.043
 23.400  0.016 23.410 -0.023 23.420 -0.046 23.430 -0.046 23.440 -0.046
 23.450 -0.046 23.460 -0.026 23.470 -0.024 23.480 -0.024 23.490 -0.008
 23.500 -0.002 23.510 -0.002 23.520 -0.002 23.530 -0.002 23.540 -0.002
 23.550 -0.002 23.560 -0.002 23.570 -0.002 23.580 -0.018 23.590 -0.002
 23.600 -0.002 23.610  0.000 23.620  0.020 23.630  0.020 23.640  0.020
 23.650  0.043 23.660  0.043 23.670  0.043 23.680  0.043 23.690  0.043
 23.700  0.043 23.710  0.043 23.720  0.020 23.730  0.020 23.740  0.036
 23.750  0.020 23.760  0.027 23.770  0.043 23.780  0.024 23.790  0.018
 23.800  0.007 23.810  0.020 23.820 -0.001 23.830 -0.024 23.840 -0.024
 23.850 -0.024 23.860 -0.046 23.870 -0.046 23.880 -0.032 23.890 -0.024
 23.900 -0.019 23.910 -0.002 23.920 -0.002 23.930 -0.025 23.940 -0.046
 23.950 -0.046 23.960 -0.065 23.970 -0.068 23.980 -0.068 23.990 -0.068
 24.000 -0.068 24.010 -0.040 24.020 -0.024 24.030 -0.005 24.040  0.001
 24.050  0.020 24.060  0.020 24.070  0.042 24.080  0.043 24.090  0.043
 24.100  0.043 24.110  0.020 24.120  0.020 24.130  0.006 24.140 -0.002
 24.150 -0.002 24.160 -0.012 24.170 -0.040 24.180 -0.024 24.190 -0.031
 24.200 -0.046 24.210 -0.046 24.220 -0.024 24.230 -0.033 24.240 -0.062
 24.250 -0.068 24.260 -0.062 24.270 -0.046 24.280 -0.046 24.290 -0.068
 24.300 -0.068 24.310 -0.068 24.320 -0.047 24.330 -0.046 24.340 -0.046
 24.350 -0.046 24.360 -0.022 24.370  0.006 24.380  0.006 24.390 -0.002
 24.400  0.020 24.410  0.031 24.420  0.059 24.430  0.065 24.440  0.065
 24.450  0.078 24.460  0.087 24.470  0.087 24.480  0.087 24.490  0.087
 24.500  0.087 24.510  0.087 24.520  0.074 24.530  0.065 24.540  0.043
 24.550  0.043 24.560  0.028 24.570 -0.001 24.580 -0.007 24.590 -0.024
 24.600 -0.041 24.610 -0.046 24.620 -0.046 24.630 -0.046 24.640 -0.046
 24.650 -0.046 24.660 -0.046 24.670 -0.063 24.680 -0.068 24.690 -0.068
 24.700 -0.068 24.710 -0.048 24.720 -0.049 24.730 -0.068 24.740 -0.068
 24.750 -0.046 24.760 -0.030 24.770 -0.046 24.780 -0.027 24.790 -0.024
 24.800 -0.015 24.810  0.013 24.820  0.020 24.830  0.026 24.840  0.043
 24.850  0.043 24.860  0.043 24.870  0.043 24.880  0.057 24.890  0.065
 24.900  0.065 24.910  0.065 24.920  0.081 24.930  0.065 24.940  0.065
 24.950  0.065 24.960  0.065 24.970  0.083 24.980  0.074 24.990  0.071
 25.000  0.065 25.010  0.058 25.020  0.055 25.030  0.065 25.040  0.043
 25.050  0.043 25.060  0.043 25.070  0.043 25.080  0.020 25.090  0.009
 25.100 -0.002 25.110  0.000 25.120  0.013 25.130 -0.002 25.140  0.019
 25.150 -0.002 25.160 -0.002 25.170  0.015 25.180  0.020 25.190  0.020
 25.200  0.007 25.210 -0.002 25.220  0.020 25.230  0.020 25.240  0.020
 25.250  0.020 25.260  0.020 25.270  0.033 25.280  0.005 25.290  0.001
 25.300  0.020 25.310  0.005 25.320 -0.023 25.330 -0.024 25.340 -0.024
 25.350 -0.024 25.360 -0.025 25.370 -0.046 25.380 -0.060 25.390 -0.068
 25.400 -0.046 25.410 -0.035 25.420 -0.024 25.430 -0.002 25.440 -0.002
 25.450 -0.002 25.460  0.018 25.470  0.020 25.480  0.030 25.490  0.043
 25.500  0.043 25.510  0.043 25.520  0.030 25.530  0.020 25.540  0.020
 25.550  0.020 25.560  0.005 25.570 -0.002 25.580 -0.007 25.590 -0.012
 25.600 -0.002 25.610  0.019 25.620 -0.002 25.630 -0.002 25.640  0.019
 25.650  0.020 25.660  0.020 25.670  0.020 25.680  0.021 25.690  0.050
 25.700  0.051 25.710  0.043 25.720  0.020 25.730  0.011 25.740 -0.002
 25.750 -0.024 25.760 -0.024 25.770 -0.036 25.780 -0.046 25.790 -0.046
 25.800 -0.046 25.810 -0.046 25.820 -0.025 25.830 -0.018 25.840 -0.002
 25.850 -0.002 25.860  0.000 25.870  0.020 25.880  0.020 25.890  0.020
 25.900  0.020 25.910  0.020 25.920  0.004 25.930 -0.002 25.940 -0.002
 25.950 -0.015 25.960 -0.004 25.970 -0.002 25.980 -0.002 25.990 -0.017
 26.000 -0.024 26.010 -0.030 26.020 -0.046 26.030 -0.027 26.040 -0.024
 26.050 -0.024 26.060 -0.024 26.070 -0.002 26.080 -0.024 26.090 -0.024
 26.100 -0.024 26.110 -0.024 26.120 -0.024 26.130 -0.024 26.140 -0.003
 26.150 -0.024 26.160 -0.024 26.170 -0.007 26.180 -0.002 26.190 -0.024
 26.200 -0.024 26.210 -0.004 26.220 -0.002 26.230 -0.002 26.240 -0.002
 26.250 -0.002 26.260 -0.002 26.270  0.011 26.280  0.002 26.290 -0.024
 26.300 -0.024 26.310 -0.024 26.320 -0.002 26.330 -0.007 26.340 -0.024
 26.350 -0.041 26.360 -0.022 26.370 -0.010 26.380 -0.024 26.390 -0.024
 26.400 -0.024 26.410 -0.024 26.420 -0.024 26.430 -0.025 26.440 -0.046
 26.450 -0.046 26.460 -0.046 26.470 -0.068 26.480 -0.058 26.490 -0.046
 26.500 -0.046 26.510 -0.046 26.520 -0.046 26.530 -0.046 26.540 -0.043
 26.550 -0.024 26.560 -0.024 26.570 -0.045 26.580 -0.018 26.590 -0.002
 26.600 -0.019 26.610 -0.024 26.620 -0.024 26.630 -0.038 26.640 -0.046
 26.650 -0.019 26.660 -0.002 26.670 -0.002 26.680  0.020 26.690 -0.002
 26.700 -0.002 26.710 -0.021 26.720 -0.024 26.730 -0.014 26.740 -0.017
 26.750 -0.024 26.760 -0.002 26.770 -0.002 26.780 -0.002 26.790 -0.002
 26.800 -0.002 26.810 -0.002 26.820  0.020 26.830  0.043 26.840  0.043
 26.850  0.025 26.860  0.020 26.870  0.028 26.880  0.043 26.890  0.022
 26.900  0.016 26.910 -0.002 26.920 -0.018 26.930 -0.024 26.940 -0.017
 26.950 -0.002 26.960 -0.002 26.970 -0.002 26.980  0.008 26.990  0.020
 27.000  0.020 27.010  0.043 27.020  0.043 27.030  0.024 27.040  0.043
 27.050  0.034 27.060  0.020 27.070  0.020 27.080  0.020 27.090  0.020
 27.100  0.020 27.110  0.000 27.120  0.020 27.130  0.020 27.140  0.020
 27.150  0.020 27.160  0.031 27.170  0.043 27.180  0.043 27.190  0.043
 27.200  0.056 27.210  0.045 27.220  0.043 27.230  0.043 27.240  0.043
 27.250  0.043 27.260  0.043 27.270  0.043 27.280  0.043 27.290  0.045
 27.300  0.065 27.310  0.065 27.320  0.065 27.330  0.059 27.340  0.043
 27.350  0.043 27.360  0.043 27.370  0.043 27.380  0.028 27.390  0.000
 27.400 -0.002 27.410 -0.012 27.420 -0.007 27.430 -0.025 27.440 -0.046
 27.450 -0.046 27.460 -0.046 27.470 -0.027 27.480 -0.046 27.490 -0.046
 27.500 -0.046 27.510 -0.046 27.520 -0.046 27.530 -0.027 27.540 -0.024
 27.550 -0.033 27.560 -0.046 27.570 -0.025 27.580 -0.024 27.590 -0.024
 27.600 -0.024 27.610 -0.002 27.620 -0.002 27.630 -0.002 27.640 -0.002
 27.650 -0.002 27.660  0.009 27.670  0.004 27.680 -0.001 27.690  0.020
 27.700  0.020 27.710  0.020 27.720  0.020 27.730  0.020 27.740  0.020
 27.750  0.020 27.760  0.014 27.770  0.011 27.780  0.020 27.790  0.020
 27.800  0.020 27.810  0.020 27.820  0.020 27.830 -0.002 27.840 -0.002
 27.850 -0.002 27.860 -0.003 27.870 -0.024 27.880 -0.024 27.890 -0.044
 27.900 -0.046 27.910 -0.046 27.920 -0.063 27.930 -0.046 27.940 -0.046
 27.950 -0.046 27.960 -0.046 27.970 -0.068 27.980 -0.068 27.990 -0.068
 28.000 -0.068 28.010 -0.062 28.020 -0.046 28.030 -0.046 28.040 -0.048
 28.050 -0.068 28.060 -0.053 28.070 -0.046 28.080 -0.024 28.090 -0.035
 28.100 -0.028 28.110 -0.002 28.120 -0.002 28.130 -0.016 28.140 -0.003
 28.150 -0.002 28.160 -0.002 28.170 -0.002 28.180 -0.001 28.190  0.013
 28.200  0.012 28.210  0.020 28.220  0.020 28.230  0.011 28.240 -0.002
 28.250 -0.002 28.260 -0.002 28.270 -0.002 28.280 -0.002 28.290  0.001
 28.300  0.020 28.310  0.005 28.320 -0.002 28.330 -0.002 28.340 -0.002
 28.350 -0.019 28.360 -0.024 28.370 -0.024 28.380 -0.038 28.390 -0.025
 28.400 -0.050 28.410 -0.068 28.420 -0.068 28.430 -0.068 28.440 -0.061
 28.450 -0.046 28.460 -0.046 28.470 -0.046 28.480 -0.055 28.490 -0.052
 28.500 -0.046 28.510 -0.062 28.520 -0.046 28.530 -0.046 28.540 -0.046
 28.550 -0.037 28.560 -0.024 28.570 -0.002 28.580  0.004 28.590  0.009
 28.600 -0.002 28.610 -0.002 28.620 -0.002 28.630 -0.002 28.640 -0.002
 28.650  0.003 28.660  0.020 28.670  0.037 28.680  0.043 28.690  0.065
 28.700  0.065 28.710  0.065 28.720  0.065 28.730  0.065 28.740  0.049
 28.750  0.043 28.760  0.043 28.770  0.043 28.780  0.043 28.790  0.023
 28.800  0.043 28.810  0.043 28.820  0.043 28.830  0.043 28.840  0.043
 28.850  0.025 28.860  0.020 28.870  0.013 28.880 -0.002 28.890 -0.002
 28.900 -0.002 28.910 -0.002 28.920 -0.002 28.930 -0.024 28.940 -0.024
 28.950 -0.024 28.960 -0.024 28.970 -0.024 28.980 -0.024 28.990 -0.024
 29.000 -0.024 29.010 -0.046 29.020 -0.046 29.030 -0.046 29.040 -0.043
 29.050 -0.033 29.060 -0.046 29.070 -0.046 29.080 -0.040 29.090 -0.035
 29.100 -0.046 29.110 -0.044 29.120 -0.024 29.130 -0.010 29.140 -0.002
 29.150 -0.002 29.160 -0.002 29.170 -0.002 29.180 -0.023 29.190 -0.002
 29.200 -0.002 29.210 -0.002 29.220  0.002 29.230  0.020 29.240  0.020
 29.250  0.043 29.260  0.065 29.270  0.065 29.280  0.065 29.290  0.087
 29.300  0.087 29.310  0.072 29.320  0.065 29.330  0.065 29.340  0.065
 29.350  0.047 29.360  0.043 29.370  0.050 29.380  0.065 29.390  0.065
 29.400  0.065 29.410  0.065 29.420  0.081 29.430  0.087 29.440  0.087
 29.450  0.087 29.460  0.106 29.470  0.109 29.480  0.109 29.490  0.109
 29.500  0.087 29.510  0.087 29.520  0.087 29.530  0.068 29.540  0.043
 29.550  0.043 29.560  0.043 29.570  0.043 29.580  0.020 29.590  0.009
 29.600  0.016 29.610  0.020 29.620  0.020 29.630  0.020 29.640  0.020
 29.650  0.020 29.660  0.020 29.670  0.004 29.680 -0.002 29.690 -0.024
 29.700 -0.024 29.710 -0.024 29.720 -0.002 29.730 -0.002 29.740 -0.002
 29.750 -0.002 29.760 -0.024 29.770 -0.024 29.780 -0.024 29.790 -0.021
 29.800 -0.002 29.810 -0.002 29.820 -0.002 29.830  0.004 29.840  0.020
 29.850  0.020 29.860  0.020 29.870  0.028 29.880  0.028 29.890  0.000
 29.900 -0.002 29.910 -0.002 29.920 -0.002 29.930  0.020 29.940  0.020
 29.950  0.007 29.960 -0.002 29.970  0.002 29.980  0.020 29.990  0.005
 30.000 -0.002 30.010 -0.002 30.020 -0.002 30.030 -0.002 30.040 -0.024
 30.050 -0.024 30.060 -0.024 30.070 -0.002 30.080 -0.002 30.090 -0.002
 30.100 -0.002 30.110  0.020 30.120  0.013 30.130 -0.002 30.140 -0.002
 30.150 -0.024 30.160 -0.013 30.170 -0.002 30.180 -0.002 30.190 -0.024
 30.200 -0.024 30.210 -0.004 30.220  0.002 30.230  0.020 30.240  0.005
 30.250  0.020 30.260  0.014 30.270  0.011 30.280  0.020 30.290  0.018
 30.300 -0.002 30.310 -0.002 30.320 -0.002 30.330 -0.007 30.340 -0.024
 30.350 -0.041 30.360 -0.048 30.370 -0.068 30.380 -0.068 30.390 -0.048
 30.400 -0.046 30.410 -0.046 30.420 -0.063 30.430 -0.046 30.440 -0.046
 30.450 -0.033 30.460 -0.024 30.470 -0.024 30.480 -0.024 30.490 -0.024
 30.500 -0.024 30.510 -0.024 30.520  0.001 30.530  0.039 30.540  0.043
 30.550  0.043 30.560  0.073 30.570  0.066 30.580  0.048 30.590  0.053
 30.600  0.060 30.610  0.066 30.620  0.087 30.630  0.087 30.640  0.087
 30.650  0.087 30.660  0.087 30.670  0.070 30.680  0.042 30.690  0.020
 30.700  0.020 30.710  0.020 30.720 -0.002 30.730 -0.002 30.740 -0.017
 30.750 -0.046 30.760 -0.052 30.770 -0.068 30.780 -0.068 30.790 -0.068
 30.800 -0.059 30.810 -0.046 30.820 -0.046 30.830 -0.046 30.840 -0.046
 30.850 -0.046 30.860 -0.068 30.870 -0.060 30.880 -0.046 30.890 -0.066
 30.900 -0.068 30.910 -0.068 30.920 -0.051 30.930 -0.067 30.940 -0.046
 30.950 -0.046 30.960 -0.046 30.970 -0.024 30.980 -0.014 30.990 -0.002
 31.000 -0.002 31.010 -0.002 31.020  0.011 31.030  0.020 31.040  0.020
 31.050  0.029 31.060  0.043 31.070  0.021 31.080  0.015 31.090 -0.002
 31.100 -0.002 31.110 -0.002 31.120 -0.002 31.130 -0.002 31.140 -0.022
 31.150 -0.046 31.160 -0.035 31.170 -0.040 31.180 -0.068 31.190 -0.068
 31.200 -0.068 31.210 -0.068 31.220 -0.086 31.230 -0.068 31.240 -0.068
 31.250 -0.068 31.260 -0.068 31.270 -0.055 31.280 -0.046 31.290 -0.065
 31.300 -0.046 31.310 -0.046 31.320 -0.046 31.330 -0.040 31.340 -0.024
 31.350 -0.024 31.360 -0.024 31.370 -0.024 31.380 -0.024 31.390 -0.044
 31.400 -0.046 31.410 -0.046 31.420 -0.046 31.430 -0.045 31.440 -0.024
 31.450 -0.024 31.460 -0.024 31.470 -0.017 31.480  0.020 31.490  0.005
 31.500  0.020 31.510 -0.002 31.520  0.011 31.530  0.039 31.540  0.065
 31.550  0.056 31.560  0.043 31.570  0.043 31.580  0.043 31.590  0.043
 31.600  0.043 31.610  0.020 31.620  0.028 31.630  0.028 31.640  0.000
 31.650 -0.002 31.660 -0.002 31.670 -0.002 31.680 -0.002 31.690 -0.002
 31.700  0.012 31.710  0.020 31.720 -0.002 31.730 -0.002 31.740 -0.002
 31.750 -0.002 31.760 -0.008 31.770 -0.024 31.780 -0.024 31.790 -0.024
 31.800 -0.033 31.810 -0.046 31.820 -0.067 31.830 -0.046 31.840 -0.046
 31.850 -0.046 31.860 -0.048 31.870 -0.068 31.880 -0.068 31.890 -0.068
 31.900 -0.046 31.910 -0.046 31.920 -0.046 31.930 -0.045 31.940 -0.017
 31.950 -0.002 31.960 -0.002 31.970 -0.002 31.980 -0.002 31.990 -0.002
 32.000 -0.002 32.010 -0.002 32.020 -0.002 32.030 -0.002 32.040 -0.002
 32.050 -0.002 32.060  0.013 32.070  0.020 32.080  0.004 32.090  0.020
 32.100  0.003 32.110 -0.002 32.120  0.006 32.130  0.020 32.140  0.020
 32.150  0.020 32.160  0.031 32.170  0.043 32.180  0.020 32.190  0.020
 32.200  0.007 32.210 -0.002 32.220 -0.005 32.230 -0.024 32.240 -0.040
 32.250 -0.068 32.260 -0.068 32.270 -0.068 32.280 -0.086 32.290 -0.068
 32.300 -0.068 32.310 -0.068 32.320 -0.047 32.330 -0.046 32.340 -0.046
 32.350 -0.046 32.360 -0.046 32.370 -0.038 32.380 -0.024 32.390 -0.024
 32.400 -0.002 32.410 -0.002 32.420 -0.002 32.430 -0.002 32.440 -0.002
 32.450 -0.002 32.460 -0.002 32.470  0.020 32.480  0.011 32.490 -0.002
 32.500 -0.002 32.510 -0.002 32.520 -0.002 32.530 -0.002 32.540 -0.002
 32.550 -0.010 32.560 -0.024 32.570 -0.024 32.580  0.004 32.590  0.020
 32.600  0.020 32.610  0.019 32.620  0.006 32.630  0.006 32.640 -0.022
 32.650 -0.002 32.660 -0.002 32.670 -0.002 32.680 -0.002 32.690 -0.002
 32.700 -0.015 32.710 -0.024 32.720 -0.024 32.730 -0.014 32.740 -0.002
 32.750 -0.002 32.760 -0.002 32.770 -0.002 32.780 -0.002 32.790 -0.002
 32.800 -0.002 32.810  0.013 32.820  0.020 32.830 -0.002 32.840 -0.013
 32.850 -0.006 32.860 -0.002 32.870 -0.002 32.880 -0.002 32.890 -0.002
 32.900 -0.002 32.910 -0.002 32.920 -0.002 32.930 -0.001 32.940  0.020
 32.950  0.007 32.960  0.018 32.970  0.024 32.980  0.043 32.990  0.043
 33.000  0.020 33.010  0.020 33.020  0.020 33.030  0.002 33.040  0.001
 33.050  0.020 33.060  0.020 33.070  0.020 33.080  0.020 33.090  0.009
 33.100  0.016 33.110 -0.002 33.120 -0.010 33.130 -0.024 33.140 -0.003
 33.150 -0.002 33.160 -0.002 33.170 -0.002 33.180 -0.002 33.190 -0.024
 33.200 -0.024 33.210 -0.024 33.220 -0.020 33.230 -0.011 33.240 -0.024
 33.250 -0.002 33.260 -0.008 33.270 -0.024 33.280 -0.005 33.290 -0.004
 33.300 -0.015 33.310 -0.002 33.320 -0.002 33.330 -0.024 33.340 -0.024
 33.350 -0.024 33.360 -0.024 33.370 -0.016 33.380 -0.002 33.390  0.019
 33.400  0.020 33.410  0.031 33.420  0.026 33.430  0.021 33.440  0.043
 33.450  0.043 33.460  0.043 33.470  0.043 33.480  0.043 33.490  0.043
 33.500  0.043 33.510  0.065 33.520  0.052 33.530  0.043 33.540  0.045
 33.550  0.065 33.560  0.065 33.570  0.065 33.580  0.059 33.590  0.043
 33.600  0.060 33.610  0.063 33.620  0.043 33.630  0.043 33.640  0.043
 33.650  0.043 33.660  0.043 33.670  0.026 33.680  0.020 33.690  0.020
 33.700  0.020 33.710  0.020 33.720  0.020 33.730  0.011 33.740 -0.002
 33.750 -0.002 33.760 -0.002 33.770  0.011 33.780  0.002 33.790 -0.002
 33.800  0.007 33.810  0.020 33.820  0.020 33.830  0.020 33.840  0.020
 33.850  0.038 33.860  0.020 33.870  0.020 33.880  0.020 33.890  0.020
 33.900  0.020 33.910  0.010 33.920 -0.002 33.930 -0.001 33.940  0.013
 33.950 -0.002 33.960 -0.002 33.970  0.002 33.980  0.020 33.990  0.005
 34.000 -0.002 34.010 -0.002 34.020 -0.002 34.030 -0.002 34.040  0.020
 34.050  0.020 34.060  0.005 34.070 -0.002 34.080  0.004 34.090  0.009
 34.100 -0.002 34.110 -0.025 34.120 -0.046 34.130 -0.046 34.140 -0.025
 34.150 -0.046 34.160 -0.046 34.170 -0.046 34.180 -0.024 34.190 -0.024
 34.200 -0.010 34.210 -0.002 34.220 -0.027 34.230 -0.036 34.240 -0.008
 34.250 -0.002 34.260 -0.017 34.270 -0.002 34.280 -0.002 34.290 -0.002
 34.300 -0.002 34.310 -0.002 34.320 -0.002 34.330 -0.002 34.340  0.010
 34.350  0.020 34.360  0.043 34.370  0.043 34.380  0.043 34.390  0.022
 34.400  0.020 34.410  0.010 34.420  0.015 34.430  0.020 34.440  0.020
 34.450  0.020 34.460  0.020 34.470  0.020 34.480  0.011 34.490  0.014
 34.500  0.020 34.510  0.020 34.520  0.008 34.530 -0.002 34.540 -0.004
 34.550 -0.015 34.560 -0.002 34.570 -0.023 34.580 -0.046 34.590 -0.057
 34.600 -0.068 34.610 -0.066 34.620 -0.046 34.630 -0.046 34.640 -0.025
 34.650 -0.019 34.660 -0.002 34.670  0.015 34.680  0.020 34.690  0.020
 34.700  0.020 34.710  0.020 34.720  0.043 34.730  0.043 34.740  0.043
 34.750  0.065 34.760  0.043 34.770  0.055 34.780  0.065 34.790  0.065
 34.800  0.065 34.810  0.065 34.820  0.065 34.830  0.065 34.840  0.065
 34.850  0.047 34.860  0.044 34.870  0.057 34.880  0.043 34.890  0.043
 34.900  0.020 34.910  0.020 34.920  0.004 34.930 -0.002 34.940 -0.016
 34.950 -0.046 34.960 -0.065 34.970 -0.071 34.980 -0.080 34.990 -0.068
/&  ----------  END OF DATA FOR CHANNEL 2  ----------
UNCORRECTED ACCELEROGRAM DATA              PROCESSED: 05/24/2011
MAULE 2010
02/27/2010 3:41:05 (GMT)                (ORIGIN: 02/27/2010 3:41:05 GMT)
                                   TRIGGER TIME: 2/27/2010 3:41:15.000 GMT
STATION NO.          0.000N    0.000E  QDR       S/N  675 (3  CHNS OF 3  AT STA)
VIÑA DEL MAR CENTRO S/N 675
CHAN  3: V        (STA CHN:  3)               
UNIVERSIDAD DE CHILE - RENADIC
HYPOCENTER:   0.000N    0.000E  H=   0.0KM   ML= 0.00
INSTR PERIOD = 0.0391 SEC,  DAMPING =0.7000,  SENSITIVITY =1.250 VDC/G
NO. OF POINTS =   3500  RECORD LENGTH = 35.000 SEC
UNITS OF UNCOR ACCEL ARE SEC AND G/10.     MAX  = -0.019 G, AT  -9.660 SEC
RMS ACCEL OF COMPLETE RECORD = 0.003 G
    3    1    3    3    3    0    1    0    0    0    0    0    0    0    0    0
    0    0    0    0    0    0    0    0    0    0    0 3500   10   27   30    0
    0    0    0    0    0    0    0    0    0    0    0    0    0    0    0    0
    0    0    0    0    0    0    0    0    0    0    0    0    0    0    0    0
    0    0    0    0    0    0    0    0    0    0    0    0    0    0    0    0
    0    0    0    0    0    0    0    0    0    0    0    0    0    0    0    0
    0    0    0    0
     0.039     0.700    35.000     0.003     0.100     1.250    -0.019    -9.660
    25.575     0.000     0.000     0.000    10.000     0.000    10.000    10.000
     0.000     0.000     0.000     0.000     0.000     0.000     0.000     0.000
     0.000     0.000     0.000     0.000     0.000     0.000     0.000     0.000
     0.000     0.000     0.000     0.000     0.000     0.000     0.000     0.000
     0.000     0.000     0.000     0.000     0.000     0.000     0.000     0.000
     0.000     0.000
  0.000  0.001  0.010  0.023  0.020  0.011  0.030  0.001  0.040  0.001
  0.050  0.001  0.060  0.016  0.070  0.023  0.080  0.023  0.090  0.012
  0.100  0.001  0.110  0.023  0.120  0.023  0.130  0.009  0.140  0.001
  0.150 -0.022  0.160 -0.011  0.170  0.001  0.180  0.023  0.190  0.001
  0.200 -0.013  0.210 -0.002  0.220  0.027  0.230  0.046  0.240  0.046
  0.250  0.046  0.260  0.053  0.270  0.056  0.280  0.027  0.290 -0.025
  0.300 -0.054  0.310 -0.114  0.320 -0.158  0.330 -0.182  0.340 -0.194
  0.350 -0.187  0.360 -0.156  0.370 -0.105  0.380 -0.076  0.390 -0.005
  0.400  0.023  0.410  0.023  0.420  0.041  0.430  0.023  0.440  0.016
  0.450  0.014  0.460  0.023  0.470  0.023  0.480  0.033  0.490  0.063
  0.500  0.069  0.510  0.046  0.520  0.046  0.530  0.046  0.540  0.021
  0.550  0.001  0.560  0.001  0.570 -0.021  0.580 -0.051  0.590 -0.080
  0.600 -0.091  0.610 -0.114  0.620 -0.105  0.630 -0.091  0.640 -0.070
  0.650 -0.036  0.660  0.012  0.670  0.041  0.680  0.047  0.690  0.069
  0.700  0.069  0.710  0.069  0.720  0.069  0.730  0.059  0.740  0.013
  0.750  0.001  0.760  0.001  0.770  0.001  0.780 -0.019  0.790 -0.048
  0.800 -0.068  0.810 -0.083  0.820 -0.091  0.830 -0.136  0.840 -0.136
  0.850 -0.118  0.860 -0.115  0.870 -0.128  0.880 -0.099  0.890 -0.070
  0.900 -0.018  0.910  0.001  0.920  0.018  0.930  0.046  0.940  0.039
  0.950  0.023  0.960  0.003  0.970 -0.003  0.980 -0.032  0.990 -0.045
  1.000 -0.068  1.010 -0.045  1.020 -0.045  1.030 -0.045  1.040 -0.045
  1.050 -0.054  1.060 -0.068  1.070 -0.046  1.080 -0.022  1.090 -0.022
  1.100 -0.022  1.110 -0.068  1.120 -0.060  1.130 -0.030  1.140 -0.022
  1.150 -0.022  1.160 -0.022  1.170 -0.022  1.180 -0.021  1.190  0.001
  1.200  0.014  1.210  0.003  1.220  0.001  1.230  0.001  1.240  0.001
  1.250  0.001  1.260  0.001  1.270  0.001  1.280  0.001  1.290  0.023
  1.300  0.023  1.310  0.023  1.320  0.023  1.330  0.046  1.340  0.046
  1.350  0.010  1.360 -0.001  1.370 -0.022  1.380 -0.037  1.390 -0.024
  1.400  0.005  1.410  0.034  1.420  0.046  1.430  0.047  1.440  0.069
  1.450  0.069  1.460  0.049  1.470  0.043  1.480  0.023  1.490  0.007
  1.500 -0.022  1.510 -0.029  1.520 -0.045  1.530 -0.045  1.540 -0.048
  1.550 -0.068  1.560 -0.083  1.570 -0.113  1.580 -0.085  1.590 -0.056
  1.600 -0.045  1.610 -0.020  1.620  0.017  1.630  0.061  1.640  0.069
  1.650  0.046  1.660  0.046  1.670  0.029  1.680  0.046  1.690  0.054
  1.700  0.069  1.710  0.049  1.720  0.023  1.730  0.013  1.740  0.001
  1.750  0.001  1.760 -0.035  1.770 -0.081  1.780 -0.110  1.790 -0.114
  1.800 -0.095  1.810 -0.068  1.820 -0.068  1.830 -0.068  1.840 -0.056
  1.850 -0.027  1.860 -0.024  1.870 -0.037  1.880 -0.022  1.890 -0.001
  1.900  0.005  1.910  0.023  1.920  0.023  1.930  0.023  1.940  0.023
  1.950  0.023  1.960  0.023  1.970 -0.003  1.980 -0.042  1.990 -0.068
  2.000 -0.091  2.010 -0.068  2.020 -0.055  2.030 -0.045  2.040 -0.022
  2.050 -0.022  2.060 -0.022  2.070 -0.022  2.080 -0.017  2.090  0.001
  2.100  0.001  2.110  0.001  2.120  0.001  2.130  0.001  2.140  0.001
  2.150  0.001  2.160  0.001  2.170  0.001  2.180 -0.023  2.190 -0.038
  2.200 -0.009  2.210  0.001  2.220  0.004  2.230  0.013  2.240 -0.016
  2.250 -0.022  2.260 -0.045  2.270 -0.045  2.280 -0.045  2.290 -0.045
  2.300 -0.054  2.310 -0.068  2.320 -0.068  2.330 -0.062  2.340 -0.033
  2.350 -0.004  2.360  0.046  2.370  0.046  2.380  0.046  2.390  0.067
  2.400  0.065  2.410  0.046  2.420  0.029  2.430  0.001  2.440 -0.007
  2.450 -0.022  2.460 -0.022  2.470 -0.045  2.480 -0.035  2.490 -0.006
  2.500 -0.022  2.510 -0.022  2.520 -0.009  2.530  0.001  2.540  0.006
  2.550  0.055  2.560  0.085  2.570  0.092  2.580  0.097  2.590  0.103
  2.600  0.092  2.610  0.067  2.620  0.038  2.630  0.009  2.640  0.001
  2.650 -0.022  2.660 -0.033  2.670 -0.045  2.680 -0.044  2.690 -0.022
  2.700 -0.022  2.710 -0.002  2.720 -0.003  2.730 -0.032  2.740 -0.029
  2.750 -0.022  2.760 -0.022  2.770 -0.035  2.780 -0.026  2.790 -0.025
  2.800 -0.054  2.810 -0.052  2.820 -0.067  2.830 -0.068  2.840 -0.068
  2.850 -0.068  2.860 -0.068  2.870 -0.068  2.880 -0.068  2.890 -0.047
  2.900 -0.068  2.910 -0.068  2.920 -0.085  2.930 -0.114  2.940 -0.114
  2.950 -0.100  2.960 -0.071  2.970 -0.064  2.980 -0.045  2.990 -0.029
  3.000 -0.022  3.010 -0.006  3.020 -0.009  3.030  0.001  3.040  0.026
  3.050  0.055  3.060  0.069  3.070  0.069  3.080  0.064  3.090  0.034
  3.100  0.005  3.110 -0.001  3.120 -0.030  3.130 -0.030  3.140 -0.022
  3.150 -0.022  3.160 -0.011  3.170  0.018  3.180  0.024  3.190  0.046
  3.200  0.033  3.210  0.003  3.220 -0.019  3.230  0.001  3.240  0.001
  3.250  0.001  3.260 -0.006  3.270 -0.009  3.280  0.001  3.290  0.021
  3.300 -0.009  3.310 -0.022  3.320 -0.044  3.330 -0.045  3.340 -0.045
  3.350 -0.045  3.360 -0.045  3.370 -0.045  3.380 -0.045  3.390 -0.024
  3.400  0.001  3.410  0.012  3.420  0.023  3.430  0.023  3.440 -0.007
  3.450 -0.022  3.460 -0.042  3.470 -0.049  3.480 -0.058  3.490 -0.045
  3.500 -0.045  3.510 -0.022  3.520 -0.035  3.530 -0.064  3.540 -0.042
  3.550 -0.022  3.560 -0.022  3.570 -0.000  3.580  0.001  3.590  0.001
  3.600 -0.018  3.610  0.001  3.620 -0.008  3.630 -0.022  3.640 -0.022
  3.650 -0.050  3.660 -0.068  3.670 -0.068  3.680 -0.092  3.690 -0.106
  3.700 -0.091  3.710 -0.091  3.720 -0.068  3.730 -0.058  3.740 -0.045
  3.750 -0.045  3.760 -0.039  3.770 -0.009  3.780  0.001  3.790  0.001
  3.800  0.010  3.810  0.023  3.820  0.023  3.830  0.006  3.840  0.023
  3.850  0.005  3.860 -0.022  3.870 -0.030  3.880 -0.045  3.890 -0.045
  3.900 -0.040  3.910 -0.011  3.920  0.001  3.930  0.023  3.940  0.023
  3.950  0.023  3.960  0.003  3.970  0.004  3.980  0.013  3.990  0.017
  4.000  0.001  4.010  0.007  4.020  0.023  4.030  0.023  4.040  0.023
  4.050  0.033  4.060  0.046  4.070  0.046  4.080  0.041  4.090  0.035
  4.100  0.065  4.110  0.071  4.120  0.100  4.130  0.100  4.140  0.071
  4.150  0.069  4.160  0.058  4.170  0.029  4.180 -0.000  4.190 -0.022
  4.200 -0.022  4.210 -0.022  4.220 -0.022  4.230 -0.022  4.240 -0.022
  4.250 -0.022  4.260 -0.045  4.270 -0.032  4.280 -0.041  4.290 -0.048
  4.300 -0.068  4.310 -0.052  4.320 -0.045  4.330 -0.068  4.340 -0.068
  4.350 -0.068  4.360 -0.066  4.370 -0.037  4.380 -0.022  4.390 -0.022
  4.400 -0.004  4.410 -0.022  4.420 -0.005  4.430  0.001  4.440  0.001
  4.450  0.001  4.460 -0.019  4.470  0.001  4.480  0.001  4.490  0.001
  4.500  0.001  4.510  0.001  4.520  0.013  4.530  0.023  4.540  0.023
  4.550  0.023  4.560  0.023  4.570  0.023  4.580  0.046  4.590  0.046
  4.600  0.046  4.610  0.046  4.620  0.054  4.630  0.069  4.640  0.048
  4.650  0.042  4.660  0.023  4.670  0.006  4.680 -0.022  4.690 -0.022
  4.700 -0.009  4.710 -0.019  4.720 -0.030  4.730 -0.068  4.740 -0.068
  4.750 -0.068  4.760 -0.074  4.770 -0.091  4.780 -0.091  4.790 -0.045
  4.800 -0.045  4.810 -0.030  4.820 -0.022  4.830 -0.022  4.840 -0.022
  4.850 -0.004  4.860 -0.024  4.870 -0.045  4.880 -0.045  4.890 -0.045
  4.900 -0.040  4.910 -0.011  4.920  0.018  4.930  0.001  4.940  0.008
  4.950  0.023  4.960  0.023  4.970  0.023  4.980  0.023  4.990  0.023
  5.000  0.023  5.010  0.040  5.020  0.023  5.030  0.043  5.040  0.026
  5.050  0.046  5.060  0.046  5.070  0.068  5.080  0.086  5.090  0.069
  5.100  0.051  5.110  0.022  5.120 -0.008  5.130 -0.037  5.140 -0.045
  5.150 -0.045  5.160 -0.045  5.170 -0.062  5.180 -0.068  5.190 -0.068
  5.200 -0.068  5.210 -0.068  5.220 -0.064  5.230 -0.045  5.240 -0.029
  5.250  0.001  5.260  0.030  5.270  0.033  5.280  0.023  5.290  0.021
  5.300 -0.009  5.310 -0.022  5.320 -0.044  5.330 -0.051  5.340 -0.056
  5.350 -0.027  5.360 -0.024  5.370 -0.053  5.380 -0.082  5.390 -0.091
  5.400 -0.086  5.410 -0.068  5.420 -0.068  5.430 -0.045  5.440 -0.038
  5.450 -0.009  5.460  0.021  5.470  0.023  5.480  0.023  5.490  0.023
  5.500 -0.022  5.510 -0.022  5.520 -0.035  5.530 -0.045  5.540 -0.022
  5.550 -0.013  5.560  0.001  5.570  0.001  5.580 -0.005  5.590 -0.022
  5.600 -0.004  5.610  0.001  5.620 -0.008  5.630 -0.022  5.640 -0.022
  5.650  0.005  5.660  0.034  5.670  0.046  5.680  0.045  5.690  0.023
  5.700  0.010  5.710  0.001  5.720  0.001  5.730 -0.009  5.740 -0.022
  5.750 -0.022  5.760 -0.022  5.770 -0.022  5.780 -0.022  5.790  0.003
  5.800  0.023  5.810  0.008  5.820  0.001  5.830  0.001  5.840  0.001
  5.850  0.001  5.860 -0.022  5.870 -0.022  5.880 -0.022  5.890  0.020
  5.900  0.046  5.910  0.035  5.920  0.023  5.930  0.023  5.940  0.001
  5.950  0.001  5.960 -0.019  5.970 -0.019  5.980  0.001  5.990  0.017
  6.000  0.023  6.010  0.023  6.020  0.023  6.030  0.023  6.040  0.023
  6.050  0.005  6.060 -0.022  6.070 -0.044  6.080 -0.045  6.090 -0.045
  6.100 -0.045  6.110 -0.022  6.120 -0.022  6.130 -0.008  6.140  0.001
  6.150  0.001  6.160 -0.010  6.170 -0.040  6.180 -0.069  6.190 -0.098
  6.200 -0.114  6.210 -0.134  6.220 -0.136  6.230 -0.126  6.240 -0.097
  6.250 -0.068  6.260 -0.068  6.270 -0.055  6.280 -0.064  6.290 -0.068
  6.300 -0.068  6.310 -0.068  6.320 -0.068  6.330 -0.040  6.340 -0.010
  6.350  0.019  6.360  0.046  6.370  0.046  6.380  0.046  6.390  0.046
  6.400  0.046  6.410  0.035  6.420  0.023  6.430  0.023  6.440  0.023
  6.450  0.010  6.460  0.001  6.470 -0.026  6.480 -0.045  6.490 -0.061
  6.500 -0.068  6.510 -0.068  6.520 -0.068  6.530 -0.068  6.540 -0.045
  6.550 -0.045  6.560 -0.030  6.570 -0.000  6.580  0.046  6.590  0.070
  6.600  0.110  6.610  0.115  6.620  0.115  6.630  0.115  6.640  0.115
  6.650  0.087  6.660  0.058  6.670  0.029  6.680  0.023  6.690  0.023
  6.700  0.010  6.710  0.021  6.720  0.027  6.730  0.036  6.740  0.023
  6.750  0.046  6.760  0.033  6.770  0.001  6.780  0.001  6.790 -0.022
  6.800 -0.022  6.810 -0.022  6.820 -0.022  6.830 -0.022  6.840 -0.010
  6.850  0.001  6.860  0.023  6.870  0.023  6.880  0.038  6.890  0.046
  6.900  0.069  6.910  0.069  6.920  0.069  6.930  0.069  6.940  0.069
  6.950  0.055  6.960  0.046  6.970  0.046  6.980  0.036  6.990  0.023
  7.000  0.001  7.010 -0.006  7.020 -0.022  7.030 -0.022  7.040 -0.042
  7.050 -0.013  7.060  0.001  7.070  0.001  7.080  0.052  7.090  0.069
  7.100  0.087  7.110  0.094  7.120  0.115  7.130  0.115  7.140  0.094
  7.150  0.092  7.160  0.092  7.170  0.075  7.180  0.092  7.190  0.085
  7.200  0.055  7.210  0.046  7.220  0.020  7.230  0.001  7.240 -0.016
  7.250 -0.022  7.260  0.001  7.270 -0.012  7.280 -0.003  7.290  0.001
  7.300  0.010  7.310  0.023  7.320  0.045  7.330  0.041  7.340  0.023
  7.350  0.023  7.360  0.022  7.370  0.001  7.380 -0.014  7.390 -0.022
  7.400 -0.022  7.410 -0.022  7.420 -0.022  7.430  0.001  7.440  0.001
  7.450  0.001  7.460  0.001  7.470  0.004  7.480  0.023  7.490  0.007
  7.500  0.001  7.510 -0.035  7.520 -0.068  7.530 -0.068  7.540 -0.048
  7.550 -0.077  7.560 -0.091  7.570 -0.069  7.580 -0.062  7.590 -0.021
  7.600  0.019  7.610  0.025  7.620  0.054  7.630  0.084  7.640  0.092
  7.650  0.097  7.660  0.126  7.670  0.138  7.680  0.138  7.690  0.130
  7.700  0.087  7.710  0.069  7.720  0.046  7.730  0.036  7.740  0.023
  7.750  0.001  7.760 -0.029  7.770 -0.058  7.780 -0.068  7.790 -0.045
  7.800 -0.045  7.810 -0.030  7.820 -0.022  7.830 -0.017  7.840 -0.011
  7.850 -0.004  7.860  0.001  7.870  0.001  7.880  0.001  7.890  0.022
  7.900  0.023  7.910  0.034  7.920  0.029  7.930  0.025  7.940  0.062
  7.950  0.046  7.960  0.046  7.970  0.023  7.980  0.023  7.990  0.023
  8.000  0.001  8.010 -0.022  8.020 -0.022  8.030 -0.022  8.040  0.003
  8.050  0.023  8.060  0.008  8.070  0.001  8.080 -0.005  8.090 -0.010
  8.100  0.001  8.110  0.001  8.120  0.001  8.130  0.001  8.140  0.001
  8.150  0.001  8.160  0.012  8.170  0.041  8.180  0.046  8.190  0.046
  8.200  0.046  8.210  0.046  8.220  0.069  8.230  0.069  8.240  0.053
  8.250  0.023  8.260  0.017  8.270 -0.012  8.280 -0.022  8.290  0.001
  8.300  0.001  8.310 -0.015  8.320 -0.022  8.330 -0.045  8.340 -0.045
  8.350 -0.063  8.360 -0.070  8.370 -0.091  8.380 -0.091  8.390 -0.091
  8.400 -0.086  8.410 -0.057  8.420 -0.028  8.430 -0.021  8.440  0.008
  8.450  0.010  8.460  0.001  8.470  0.001  8.480 -0.009  8.490 -0.039
  8.500 -0.068  8.510 -0.074  8.520 -0.091  8.530 -0.072  8.540 -0.071
  8.550 -0.082  8.560 -0.068  8.570 -0.024  8.580 -0.017  8.590  0.024
  8.600  0.065  8.610  0.071  8.620  0.100  8.630  0.129  8.640  0.117
  8.650  0.092  8.660  0.070  8.670  0.029  8.680  0.023  8.690  0.016
  8.700 -0.013  8.710 -0.022  8.720  0.001  8.730 -0.009  8.740 -0.022
  8.750 -0.022  8.760 -0.016  8.770 -0.012  8.780 -0.022  8.790 -0.022
  8.800 -0.013  8.810  0.016  8.820  0.023  8.830  0.029  8.840  0.034
  8.850  0.023  8.860  0.001  8.870  0.001  8.880  0.001  8.890  0.001
  8.900 -0.004  8.910 -0.011  8.920 -0.017  8.930 -0.022  8.940 -0.022
  8.950 -0.036  8.960 -0.045  8.970 -0.049  8.980 -0.068  8.990 -0.068
  9.000 -0.068  9.010 -0.061  9.020 -0.032  9.030 -0.022  9.040  0.003
  9.050  0.033  9.060  0.046  9.070  0.046  9.080  0.046  9.090  0.046
  9.100  0.065  9.110  0.046  9.120  0.054  9.130  0.084  9.140  0.113
  9.150  0.142  9.160  0.149  9.170  0.138  9.180  0.115  9.190  0.107
  9.200  0.078  9.210  0.069  9.220  0.046  9.230  0.036  9.240  0.007
  9.250  0.001  9.260  0.023  9.270  0.023  9.280  0.043  9.290  0.069
  9.300  0.069  9.310  0.069  9.320  0.069  9.330  0.064  9.340  0.046
  9.350  0.065  9.360  0.046  9.370  0.054  9.380  0.069  9.390  0.048
  9.400  0.028  9.410  0.057  9.420  0.069  9.430  0.069  9.440  0.069
  9.450  0.069  9.460  0.069  9.470  0.050  9.480  0.059  9.490  0.046
  9.500  0.023  9.510  0.023  9.520  0.023  9.530  0.023  9.540  0.023
  9.550  0.023  9.560  0.023  9.570  0.023  9.580  0.018  9.590  0.001
  9.600  0.001  9.610  0.001  9.620  0.001  9.630  0.015  9.640  0.023
  9.650  0.028  9.660  0.057  9.670  0.069  9.680  0.069  9.690  0.069
  9.700  0.055  9.710  0.046  9.720  0.046  9.730  0.036  9.740  0.007
  9.750  0.001  9.760  0.023  9.770  0.023  9.780  0.023  9.790  0.021
  9.800  0.001  9.810  0.001  9.820  0.001  9.830 -0.005  9.840 -0.022
  9.850 -0.022  9.860 -0.022  9.870 -0.022  9.880 -0.022  9.890 -0.001
  9.900  0.001  9.910  0.001  9.920  0.001  9.930  0.023  9.940  0.001
  9.950  0.001  9.960 -0.019  9.970 -0.022  9.980 -0.022  9.990 -0.022
 10.000 -0.045 10.010 -0.045 10.020 -0.045 10.030 -0.026 10.040  0.001
 10.050  0.001 10.060  0.001 10.070  0.001 10.080  0.001 10.090  0.001
 10.100  0.001 10.110  0.002 10.120  0.023 10.130  0.023 10.140  0.023
 10.150  0.046 10.160  0.046 10.170  0.029 10.180  0.001 10.190 -0.007
 10.200 -0.022 10.210 -0.022 10.220 -0.022 10.230 -0.022 10.240 -0.022
 10.250 -0.045 10.260 -0.022 10.270 -0.022 10.280 -0.022 10.290 -0.022
 10.300 -0.022 10.310 -0.007 10.320 -0.021 10.330 -0.022 10.340 -0.022
 10.350 -0.022 10.360 -0.020 10.370 -0.008 10.380 -0.022 10.390 -0.022
 10.400  0.001 10.410  0.001 10.420  0.001 10.430  0.023 10.440  0.023
 10.450  0.023 10.460  0.023 10.470  0.023 10.480  0.013 10.490  0.001
 10.500  0.023 10.510  0.001 10.520 -0.012 10.530 -0.022 10.540 -0.025
 10.550 -0.045 10.560 -0.045 10.570 -0.045 10.580 -0.045 10.590 -0.045
 10.600 -0.045 10.610 -0.022 10.620 -0.022 10.630 -0.008 10.640  0.022
 10.650  0.023 10.660  0.023 10.670  0.006 10.680 -0.000 10.690 -0.022
 10.700 -0.022 10.710 -0.022 10.720 -0.019 10.730 -0.009 10.740 -0.022
 10.750 -0.022 10.760 -0.022 10.770 -0.022 10.780 -0.022 10.790  0.003
 10.800  0.023 10.810  0.023 10.820  0.045 10.830  0.046 10.840  0.046
 10.850  0.046 10.860  0.023 10.870  0.023 10.880  0.023 10.890  0.023
 10.900  0.001 10.910  0.001 10.920  0.001 10.930  0.001 10.940  0.001
 10.950  0.001 10.960  0.021 10.970  0.027 10.980  0.046 10.990  0.030
 11.000  0.046 11.010  0.046 11.020  0.033 11.030  0.043 11.040  0.023
 11.050  0.023 11.060  0.008 11.070 -0.021 11.080  0.001 11.090  0.001
 11.100  0.001 11.110  0.002 11.120  0.023 11.130  0.038 11.140  0.046
 11.150  0.046 11.160  0.046 11.170  0.029 11.180  0.023 11.190 -0.007
 11.200 -0.022 11.210 -0.022 11.220 -0.022 11.230 -0.032 11.240 -0.045
 11.250 -0.068 11.260 -0.045 11.270 -0.045 11.280 -0.045 11.290 -0.065
 11.300 -0.045 11.310 -0.030 11.320 -0.000 11.330  0.006 11.340  0.023
 11.350  0.023 11.360  0.025 11.370  0.046 11.380  0.046 11.390  0.046
 11.400  0.023 11.410  0.023 11.420  0.006 11.430  0.002 11.440  0.023
 11.450  0.023 11.460  0.023 11.470  0.023 11.480  0.023 11.490  0.023
 11.500  0.023 11.510  0.001 11.520  0.001 11.530  0.001 11.540 -0.025
 11.550 -0.045 11.560 -0.045 11.570 -0.067 11.580 -0.045 11.590 -0.045
 11.600 -0.027 11.610 -0.043 11.620 -0.022 11.630 -0.008 11.640  0.001
 11.650  0.001 11.660  0.012 11.670  0.023 11.680  0.001 11.690  0.001
 11.700 -0.013 11.710 -0.022 11.720 -0.022 11.730 -0.022 11.740 -0.022
 11.750 -0.045 11.760 -0.045 11.770 -0.045 11.780 -0.045 11.790 -0.068
 11.800 -0.068 11.810 -0.068 11.820 -0.046 11.830 -0.045 11.840 -0.045
 11.850 -0.045 11.860 -0.045 11.870 -0.037 11.880 -0.022 11.890 -0.022
 11.900 -0.022 11.910 -0.011 11.920  0.001 11.930  0.001 11.940  0.008
 11.950  0.023 11.960  0.023 11.970  0.027 11.980  0.046 11.990  0.046
 12.000  0.046 12.010  0.053 12.020  0.069 12.030  0.050 12.040  0.044
 12.050  0.014 12.060  0.001 12.070  0.001 12.080  0.001 12.090  0.001
 12.100  0.001 12.110  0.001 12.120  0.001 12.130  0.001 12.140  0.022
 12.150  0.005 12.160  0.023 12.170  0.023 12.180  0.045 12.190  0.023
 12.200  0.023 12.210  0.003 12.220 -0.003 12.230 -0.012 12.240 -0.016
 12.250 -0.045 12.260 -0.051 12.270 -0.068 12.280 -0.068 12.290 -0.091
 12.300 -0.091 12.310 -0.091 12.320 -0.069 12.330 -0.040 12.340 -0.022
 12.350 -0.022 12.360 -0.020 12.370  0.001 12.380  0.001 12.390  0.001
 12.400  0.001 12.410  0.001 12.420  0.001 12.430 -0.000 12.440 -0.022
 12.450 -0.022 12.460 -0.022 12.470 -0.045 12.480 -0.045 12.490 -0.045
 12.500 -0.022 12.510 -0.039 12.520 -0.022 12.530 -0.022 12.540 -0.019
 12.550  0.010 12.560  0.023 12.570  0.023 12.580  0.029 12.590  0.034
 12.600  0.023 12.610  0.023 12.620  0.023 12.630  0.023 12.640  0.023
 12.650  0.019 12.660  0.001 12.670 -0.017 12.680 -0.021 12.690  0.001
 12.700  0.001 12.710  0.001 12.720 -0.022 12.730 -0.012 12.740  0.001
 12.750  0.001 12.760  0.001 12.770  0.001 12.780  0.001 12.790  0.001
 12.800  0.001 12.810  0.001 12.820  0.001 12.830  0.023 12.840  0.035
 12.850  0.046 12.860  0.023 12.870  0.023 12.880  0.023 12.890  0.023
 12.900  0.023 12.910  0.023 12.920  0.023 12.930  0.002 12.940  0.023
 12.950  0.010 12.960  0.021 12.970  0.027 12.980  0.046 12.990  0.046
 13.000  0.046 13.010  0.046 13.020  0.033 13.030  0.043 13.040  0.046
 13.050  0.037 13.060  0.023 13.070  0.023 13.080  0.023 13.090  0.023
 13.100  0.005 13.110  0.023 13.120  0.023 13.130  0.009 13.140  0.001
 13.150 -0.004 13.160 -0.022 13.170 -0.005 13.180 -0.022 13.190 -0.022
 13.200 -0.009 13.210 -0.019 13.220 -0.019 13.230  0.001 13.240  0.001
 13.250 -0.022 13.260 -0.016 13.270  0.001 13.280  0.001 13.290  0.003
 13.300  0.023 13.310  0.023 13.320  0.023 13.330  0.001 13.340 -0.011
 13.350 -0.022 13.360 -0.043 13.370 -0.022 13.380 -0.037 13.390 -0.066
 13.400 -0.045 13.410 -0.045 13.420 -0.045 13.430 -0.045 13.440 -0.038
 13.450 -0.009 13.460  0.001 13.470  0.001 13.480  0.001 13.490  0.001
 13.500 -0.022 13.510 -0.022 13.520 -0.035 13.530 -0.045 13.540 -0.022
 13.550 -0.022 13.560 -0.022 13.570 -0.022 13.580 -0.022 13.590 -0.010
 13.600 -0.018 13.610  0.001 13.620  0.001 13.630  0.015 13.640  0.023
 13.650  0.046 13.660  0.046 13.670  0.046 13.680  0.045 13.690  0.023
 13.700  0.010 13.710  0.001 13.720 -0.022 13.730 -0.022 13.740 -0.039
 13.750 -0.045 13.760 -0.045 13.770 -0.032 13.780 -0.022 13.790 -0.045
 13.800 -0.045 13.810 -0.045 13.820 -0.045 13.830 -0.045 13.840 -0.045
 13.850 -0.045 13.860 -0.022 13.870 -0.014 13.880  0.015 13.890  0.002
 13.900  0.001 13.910  0.001 13.920 -0.017 13.930 -0.022 13.940 -0.030
 13.950 -0.045 13.960 -0.025 13.970 -0.022 13.980 -0.022 13.990 -0.022
 14.000 -0.022 14.010 -0.016 14.020  0.001 14.030 -0.019 14.040 -0.002
 14.050 -0.013 14.060  0.001 14.070  0.001 14.080  0.018 14.090  0.001
 14.100  0.001 14.110  0.001 14.120  0.001 14.130  0.001 14.140  0.001
 14.150  0.001 14.160  0.012 14.170  0.023 14.180  0.001 14.190  0.008
 14.200  0.010 14.210  0.001 14.220  0.023 14.230  0.023 14.240  0.023
 14.250  0.023 14.260  0.023 14.270  0.023 14.280 -0.015 14.290 -0.022
 14.300 -0.013 14.310 -0.015 14.320 -0.022 14.330  0.001 14.340 -0.011
 14.350 -0.004 14.360  0.023 14.370  0.023 14.380  0.023 14.390  0.023
 14.400  0.023 14.410  0.023 14.420  0.023 14.430  0.046 14.440  0.039
 14.450  0.037 14.460  0.046 14.470  0.027 14.480  0.046 14.490  0.046
 14.500  0.046 14.510  0.046 14.520  0.046 14.530  0.027 14.540  0.023
 14.550  0.033 14.560  0.031 14.570  0.023 14.580  0.023 14.590  0.023
 14.600  0.042 14.610  0.046 14.620  0.046 14.630  0.061 14.640  0.069
 14.650  0.069 14.660  0.069 14.670  0.069 14.680  0.092 14.690  0.092
 14.700  0.092 14.710  0.092 14.720  0.088 14.730  0.069 14.740  0.069
 14.750  0.069 14.760  0.046 14.770  0.046 14.780  0.046 14.790  0.044
 14.800  0.014 14.810  0.001 14.820 -0.021 14.830 -0.045 14.840 -0.033
 14.850 -0.022 14.860 -0.022 14.870 -0.014 14.880 -0.014 14.890 -0.022
 14.900 -0.018 14.910 -0.010 14.920 -0.022 14.930 -0.022 14.940 -0.022
 14.950 -0.022 14.960 -0.022 14.970 -0.041 14.980 -0.022 14.990 -0.022
 15.000 -0.022 15.010 -0.016 15.020  0.001 15.030  0.020 15.040  0.023
 15.050  0.023 15.060  0.023 15.070  0.023 15.080  0.018 15.090  0.001
 15.100  0.001 15.110  0.001 15.120  0.009 15.130  0.023 15.140  0.044
 15.150  0.046 15.160  0.046 15.170  0.046 15.180  0.024 15.190  0.046
 15.200  0.033 15.210  0.023 15.220  0.004 15.230  0.033 15.240  0.046
 15.250  0.023 15.260  0.023 15.270  0.023 15.280  0.004 15.290  0.001
 15.300 -0.009 15.310 -0.022 15.320 -0.022 15.330 -0.017 15.340  0.001
 15.350  0.001 15.360  0.002 15.370  0.015 15.380  0.001 15.390  0.001
 15.400  0.001 15.410  0.001 15.420  0.001 15.430  0.002 15.440  0.023
 15.450  0.037 15.460  0.066 15.470  0.046 15.480  0.036 15.490  0.023
 15.500  0.001 15.510 -0.006 15.520 -0.022 15.530 -0.003 15.540 -0.002
 15.550 -0.013 15.560  0.001 15.570  0.001 15.580  0.006 15.590  0.023
 15.600  0.023 15.610  0.023 15.620  0.015 15.630  0.001 15.640  0.001
 15.650  0.001 15.660  0.001 15.670  0.001 15.680  0.001 15.690 -0.007
 15.700 -0.022 15.710 -0.022 15.720 -0.022 15.730 -0.032 15.740 -0.045
 15.750 -0.022 15.760 -0.022 15.770 -0.009 15.780  0.001 15.790 -0.002
 15.800 -0.013 15.810  0.001 15.820  0.001 15.830  0.001 15.840  0.012
 15.850  0.023 15.860  0.022 15.870  0.001 15.880  0.001 15.890  0.001
 15.900  0.001 15.910  0.001 15.920  0.001 15.930  0.001 15.940  0.001
 15.950  0.001 15.960  0.001 15.970  0.001 15.980  0.001 15.990  0.001
 16.000  0.001 16.010 -0.022 16.020 -0.009 16.030  0.001 16.040  0.001
 16.050  0.010 16.060  0.008 16.070  0.001 16.080 -0.005 16.090 -0.022
 16.100 -0.022 16.110 -0.022 16.120 -0.022 16.130 -0.037 16.140 -0.045
 16.150 -0.040 16.160 -0.022 16.170 -0.022 16.180 -0.023 16.190 -0.038
 16.200 -0.022 16.210 -0.022 16.220  0.001 16.230  0.011 16.240  0.023
 16.250  0.001 16.260  0.017 16.270  0.001 16.280  0.001 16.290 -0.022
 16.300 -0.022 16.310 -0.022 16.320 -0.022 16.330 -0.040 16.340 -0.022
 16.350 -0.022 16.360 -0.020 16.370  0.001 16.380  0.001 16.390  0.001
 16.400  0.001 16.410  0.001 16.420  0.018 16.430  0.023 16.440  0.008
 16.450  0.023 16.460  0.044 16.470  0.043 16.480  0.023 16.490  0.007
 16.500  0.001 16.510  0.001 16.520  0.001 16.530 -0.019 16.540 -0.045
 16.550 -0.036 16.560 -0.022 16.570 -0.022 16.580 -0.017 16.590 -0.011
 16.600 -0.004 16.610  0.023 16.620  0.015 16.630  0.001 16.640  0.001
 16.650  0.001 16.660  0.012 16.670  0.006 16.680  0.023 16.690  0.023
 16.700  0.023 16.710  0.023 16.720  0.043 16.730  0.013 16.740  0.001
 16.750  0.001 16.760  0.001 16.770  0.001 16.780 -0.019 16.790  0.001
 16.800  0.001 16.810  0.001 16.820  0.001 16.830 -0.005 16.840 -0.022
 16.850 -0.022 16.860 -0.022 16.870 -0.014 16.880  0.001 16.890  0.001
 16.900  0.023 16.910  0.023 16.920  0.023 16.930  0.023 16.940  0.001
 16.950  0.001 16.960  0.001 16.970  0.001 16.980  0.001 16.990  0.001
 17.000  0.001 17.010  0.007 17.020  0.023 17.030  0.004 17.040  0.001
 17.050  0.001 17.060  0.001 17.070  0.001 17.080  0.001 17.090  0.001
 17.100  0.001 17.110  0.023 17.120  0.023 17.130  0.023 17.140  0.002
 17.150  0.001 17.160  0.001 17.170  0.001 17.180  0.001 17.190  0.008
 17.200  0.010 17.210  0.021 17.220  0.027 17.230  0.046 17.240  0.046
 17.250  0.023 17.260  0.046 17.270  0.046 17.280  0.046 17.290  0.046
 17.300  0.046 17.310  0.031 17.320  0.023 17.330  0.018 17.340  0.001
 17.350  0.019 17.360  0.001 17.370  0.001 17.380  0.001 17.390  0.001
 17.400  0.001 17.410  0.012 17.420  0.023 17.430  0.023 17.440  0.016
 17.450  0.001 17.460  0.001 17.470 -0.022 17.480 -0.012 17.490  0.001
 17.500 -0.022 17.510 -0.022 17.520 -0.009 17.530  0.001 17.540 -0.025
 17.550 -0.045 17.560 -0.030 17.570 -0.022 17.580 -0.045 17.590 -0.033
 17.600 -0.022 17.610 -0.020 17.620  0.001 17.630  0.001 17.640 -0.020
 17.650 -0.022 17.660 -0.022 17.670 -0.022 17.680 -0.000 17.690 -0.022
 17.700 -0.022 17.710 -0.002 17.720  0.001 17.730  0.001 17.740  0.001
 17.750  0.001 17.760  0.023 17.770  0.023 17.780  0.023 17.790  0.021
 17.800  0.001 17.810  0.016 17.820  0.023 17.830  0.018 17.840  0.001
 17.850  0.001 17.860  0.001 17.870  0.001 17.880  0.001 17.890 -0.020
 17.900 -0.040 17.910 -0.022 17.920 -0.005 17.930 -0.022 17.940 -0.015
 17.950  0.001 17.960  0.001 17.970  0.001 17.980  0.011 17.990  0.023
 18.000  0.023 18.010  0.001 18.020  0.001 18.030  0.001 18.040  0.001
 18.050  0.001 18.060 -0.015 18.070 -0.022 18.080 -0.022 18.090 -0.010
 18.100  0.001 18.110  0.025 18.120  0.046 18.130  0.046 18.140  0.025
 18.150  0.023 18.160  0.034 18.170  0.029 18.180  0.023 18.190  0.023
 18.200  0.023 18.210  0.023 18.220  0.023 18.230  0.023 18.240  0.040
 18.250  0.023 18.260  0.023 18.270  0.023 18.280  0.023 18.290  0.026
 18.300  0.046 18.310  0.046 18.320  0.024 18.330  0.029 18.340  0.046
 18.350  0.028 18.360  0.023 18.370  0.023 18.380  0.009 18.390  0.001
 18.400  0.001 18.410 -0.010 18.420 -0.022 18.430 -0.022 18.440 -0.022
 18.450 -0.036 18.460 -0.045 18.470 -0.045 18.480 -0.045 18.490 -0.045
 18.500 -0.022 18.510 -0.045 18.520 -0.045 18.530 -0.045 18.540 -0.045
 18.550 -0.045 18.560 -0.030 18.570 -0.000 18.580  0.001 18.590  0.001
 18.600  0.001 18.610  0.002 18.620  0.023 18.630  0.023 18.640  0.002
 18.650  0.023 18.660  0.034 18.670  0.046 18.680  0.023 18.690  0.023
 18.700  0.023 18.710  0.003 18.720  0.020 18.730 -0.009 18.740 -0.022
 18.750 -0.022 18.760  0.001 18.770 -0.012 18.780 -0.022 18.790 -0.019
 18.800  0.010 18.810  0.023 18.820  0.023 18.830  0.018 18.840  0.001
 18.850  0.019 18.860  0.022 18.870  0.001 18.880  0.001 18.890  0.001
 18.900  0.001 18.910  0.001 18.920  0.001 18.930  0.002 18.940  0.023
 18.950  0.010 18.960  0.001 18.970  0.001 18.980 -0.009 18.990 -0.022
 19.000 -0.022 19.010  0.001 19.020  0.013 19.030  0.004 19.040  0.003
 19.050  0.023 19.060  0.023 19.070  0.023 19.080  0.023 19.090  0.012
 19.100  0.001 19.110  0.022 19.120  0.001 19.130  0.001 19.140  0.001
 19.150  0.019 19.160  0.001 19.170  0.001 19.180  0.002 19.190  0.023
 19.200  0.023 19.210  0.044 19.220  0.043 19.230  0.023 19.240  0.023
 19.250  0.001 19.260  0.001 19.270  0.001 19.280 -0.019 19.290 -0.022
 19.300 -0.031 19.310 -0.045 19.320 -0.045 19.330 -0.045 19.340 -0.033
 19.350 -0.022 19.360 -0.022 19.370 -0.014 19.380 -0.014 19.390 -0.022
 19.400 -0.022 19.410 -0.022 19.420 -0.022 19.430 -0.022 19.440 -0.022
 19.450 -0.022 19.460 -0.042 19.470 -0.072 19.480 -0.091 19.490 -0.074
 19.500 -0.068 19.510 -0.045 19.520 -0.045 19.530 -0.045 19.540 -0.022
 19.550 -0.013 19.560  0.016 19.570  0.023 19.580  0.023 19.590  0.035
 19.600  0.046 19.610  0.046 19.620  0.054 19.630  0.069 19.640  0.069
 19.650  0.046 19.660  0.046 19.670  0.029 19.680  0.023 19.690  0.001
 19.700 -0.013 19.710 -0.022 19.720 -0.022 19.730 -0.032 19.740 -0.045
 19.750 -0.045 19.760 -0.045 19.770 -0.045 19.780 -0.045 19.790 -0.045
 19.800 -0.045 19.810 -0.030 19.820 -0.000 19.830  0.001 19.840 -0.011
 19.850 -0.022 19.860 -0.001 19.870 -0.022 19.880 -0.008 19.890 -0.020
 19.900 -0.022 19.910 -0.033 19.920 -0.028 19.930 -0.022 19.940 -0.022
 19.950 -0.022 19.960 -0.022 19.970 -0.022 19.980 -0.012 19.990  0.001
 20.000  0.001 20.010  0.007 20.020  0.023 20.030  0.023 20.040  0.023
 20.050  0.033 20.060  0.046 20.070  0.046 20.080  0.046 20.090  0.046
 20.100  0.046 20.110  0.046 20.120  0.046 20.130  0.032 20.140  0.023
 20.150  0.046 20.160  0.046 20.170  0.046 20.180  0.046 20.190  0.046
 20.200  0.033 20.210  0.023 20.220  0.023 20.230  0.013 20.240  0.001
 20.250  0.001 20.260  0.001 20.270  0.001 20.280  0.020 20.290  0.023
 20.300  0.023 20.310  0.023 20.320  0.023 20.330  0.001 20.340  0.001
 20.350  0.019 20.360  0.001 20.370  0.001 20.380 -0.014 20.390 -0.022
 20.400 -0.022 20.410 -0.022 20.420 -0.022 20.430 -0.022 20.440 -0.022
 20.450 -0.009 20.460  0.001 20.470  0.004 20.480  0.023 20.490  0.023
 20.500  0.023 20.510  0.023 20.520  0.023 20.530  0.023 20.540  0.021
 20.550  0.001 20.560  0.016 20.570  0.023 20.580  0.001 20.590  0.001
 20.600  0.019 20.610  0.023 20.620  0.023 20.630  0.038 20.640  0.046
 20.650  0.028 20.660  0.046 20.670  0.064 20.680  0.069 20.690  0.069
 20.700  0.069 20.710  0.069 20.720  0.069 20.730  0.069 20.740  0.069
 20.750  0.046 20.760  0.053 20.770  0.044 20.780  0.023 20.790  0.003
 20.800  0.023 20.810  0.008 20.820  0.023 20.830  0.023 20.840  0.023
 20.850  0.023 20.860  0.023 20.870  0.023 20.880  0.009 20.890  0.022
 20.900  0.023 20.910  0.012 20.920  0.001 20.930  0.001 20.940 -0.007
 20.950 -0.022 20.960 -0.022 20.970 -0.026 20.980 -0.045 20.990 -0.045
 21.000 -0.045 21.010 -0.022 21.020 -0.022 21.030 -0.022 21.040 -0.022
 21.050 -0.013 21.060  0.001 21.070  0.001 21.080  0.006 21.090  0.023
 21.100  0.042 21.110  0.046 21.120  0.046 21.130  0.046 21.140  0.046
 21.150  0.065 21.160  0.046 21.170  0.046 21.180  0.046 21.190  0.046
 21.200  0.033 21.210  0.023 21.220  0.023 21.230  0.023 21.240  0.023
 21.250  0.023 21.260  0.023 21.270  0.011 21.280  0.020 21.290  0.001
 21.300  0.001 21.310  0.016 21.320  0.023 21.330  0.023 21.340  0.023
 21.350  0.042 21.360  0.023 21.370  0.023 21.380  0.038 21.390  0.046
 21.400  0.028 21.410  0.035 21.420  0.023 21.430  0.023 21.440  0.008
 21.450  0.023 21.460  0.023 21.470 -0.003 21.480 -0.022 21.490 -0.022
 21.500 -0.022 21.510 -0.006 21.520 -0.009 21.530  0.001 21.540  0.021
 21.550  0.001 21.560  0.001 21.570  0.001 21.580  0.001 21.590 -0.011
 21.600 -0.004 21.610  0.002 21.620  0.015 21.630 -0.014 21.640 -0.001
 21.650  0.001 21.660  0.001 21.670  0.001 21.680 -0.000 21.690 -0.015
 21.700  0.001 21.710 -0.019 21.720 -0.019 21.730  0.001 21.740  0.001
 21.750  0.001 21.760 -0.016 21.770 -0.012 21.780 -0.022 21.790 -0.022
 21.800 -0.022 21.810 -0.022 21.820 -0.022 21.830 -0.005 21.840 -0.034
 21.850 -0.027 21.860 -0.020 21.870  0.001 21.880 -0.014 21.890 -0.022
 21.900  0.001 21.910  0.001 21.920  0.001 21.930  0.001 21.940 -0.007
 21.950 -0.022 21.960 -0.022 21.970 -0.022 21.980 -0.022 21.990 -0.022
 22.000  0.001 22.010  0.001 22.020  0.001 22.030 -0.019 22.040  0.001
 22.050  0.001 22.060  0.001 22.070  0.001 22.080 -0.005 22.090 -0.022
 22.100 -0.022 22.110 -0.020 22.120  0.001 22.130  0.001 22.140  0.001
 22.150  0.005 22.160  0.012 22.170  0.018 22.180  0.023 22.190  0.023
 22.200  0.037 22.210  0.046 22.220  0.046 22.230  0.046 22.240  0.046
 22.250  0.046 22.260  0.023 22.270  0.023 22.280  0.004 22.290  0.001
 22.300 -0.009 22.310 -0.022 22.320 -0.000 22.330  0.023 22.340  0.023
 22.350  0.023 22.360  0.023 22.370  0.023 22.380  0.009 22.390  0.001
 22.400  0.001 22.410  0.001 22.420  0.001 22.430  0.001 22.440  0.001
 22.450  0.014 22.460  0.003 22.470  0.001 22.480  0.001 22.490 -0.016
 22.500 -0.022 22.510 -0.045 22.520 -0.045 22.530 -0.026 22.540 -0.022
 22.550 -0.022 22.560 -0.022 22.570 -0.022 22.580 -0.022 22.590 -0.022
 22.600 -0.022 22.610  0.001 22.620  0.001 22.630  0.001 22.640  0.001
 22.650 -0.018 22.660  0.001 22.670  0.001 22.680 -0.000 22.690 -0.015
 22.700  0.001 22.710  0.001 22.720  0.001 22.730  0.001 22.740  0.001
 22.750  0.001 22.760  0.001 22.770  0.001 22.780  0.001 22.790 -0.019
 22.800  0.001 22.810  0.001 22.820  0.001 22.830  0.001 22.840  0.001
 22.850  0.001 22.860  0.001 22.870  0.001 22.880  0.001 22.890  0.001
 22.900 -0.022 22.910 -0.022 22.920 -0.022 22.930 -0.000 22.940 -0.022
 22.950 -0.036 22.960 -0.025 22.970 -0.045 22.980 -0.035 22.990 -0.022
 23.000 -0.022 23.010 -0.016 23.020  0.013 23.030  0.043 23.040  0.023
 23.050  0.033 23.060  0.046 23.070  0.046 23.080  0.046 23.090  0.046
 23.100  0.046 23.110  0.044 23.120  0.032 23.130  0.046 23.140  0.025
 23.150  0.023 23.160  0.012 23.170 -0.017 23.180 -0.022 23.190 -0.015
 23.200  0.001 23.210  0.001 23.220  0.001 23.230 -0.009 23.240 -0.022
 23.250  0.001 23.260  0.001 23.270  0.001 23.280  0.020 23.290  0.001
 23.300  0.010 23.310  0.008 23.320  0.001 23.330 -0.022 23.340 -0.022
 23.350 -0.040 23.360 -0.045 23.370 -0.045 23.380 -0.030 23.390 -0.022
 23.400 -0.045 23.410 -0.034 23.420 -0.022 23.430 -0.022 23.440 -0.015
 23.450  0.001 23.460  0.001 23.470  0.001 23.480  0.001 23.490  0.001
 23.500  0.001 23.510  0.017 23.520  0.001 23.530  0.001 23.540 -0.002
 23.550 -0.022 23.560 -0.022 23.570 -0.022 23.580 -0.022 23.590 -0.022
 23.600 -0.022 23.610 -0.020 23.620 -0.008 23.630 -0.008 23.640  0.001
 23.650 -0.004 23.660 -0.011 23.670  0.018 23.680  0.023 23.690  0.001
 23.700 -0.013 23.710 -0.002 23.720  0.020 23.730  0.001 23.740  0.001
 23.750  0.001 23.760  0.001 23.770  0.001 23.780  0.001 23.790 -0.022
 23.800 -0.022 23.810 -0.022 23.820 -0.022 23.830 -0.017 23.840  0.001
 23.850 -0.018 23.860 -0.022 23.870 -0.022 23.880 -0.008 23.890  0.001
 23.900  0.001 23.910 -0.010 23.920 -0.022 23.930 -0.022 23.940 -0.015
 23.950  0.001 23.960  0.001 23.970  0.023 23.980  0.033 23.990  0.030
 24.000  0.023 24.010  0.017 24.020  0.013 24.030  0.023 24.040  0.021
 24.050  0.010 24.060  0.008 24.070 -0.021 24.080 -0.005 24.090 -0.022
 24.100 -0.022 24.110 -0.022 24.120 -0.022 24.130 -0.022 24.140 -0.022
 24.150 -0.022 24.160 -0.022 24.170 -0.022 24.180 -0.021 24.190  0.001
 24.200  0.001 24.210  0.001 24.220  0.001 24.230  0.001 24.240 -0.016
 24.250 -0.022 24.260 -0.029 24.270 -0.045 24.280 -0.045 24.290 -0.022
 24.300 -0.022 24.310 -0.038 24.320 -0.045 24.330 -0.040 24.340 -0.010
 24.350  0.001 24.360  0.001 24.370  0.009 24.380  0.023 24.390  0.023
 24.400 -0.004 24.410 -0.011 24.420  0.001 24.430 -0.022 24.440 -0.022
 24.450 -0.022 24.460 -0.022 24.470  0.001 24.480  0.001 24.490  0.017
 24.500  0.023 24.510  0.023 24.520  0.023 24.530  0.023 24.540  0.023
 24.550  0.023 24.560  0.008 24.570  0.001 24.580  0.023 24.590  0.023
 24.600  0.023 24.610  0.001 24.620 -0.008 24.630 -0.008 24.640  0.001
 24.650 -0.022 24.660 -0.022 24.670 -0.022 24.680  0.001 24.690  0.001
 24.700  0.001 24.710  0.021 24.720  0.020 24.730  0.011 24.740  0.040
 24.750  0.023 24.760  0.023 24.770  0.023 24.780  0.023 24.790  0.021
 24.800  0.001 24.810  0.001 24.820  0.001 24.830 -0.005 24.840 -0.022
 24.850 -0.022 24.860 -0.022 24.870 -0.022 24.880 -0.037 24.890 -0.024
 24.900 -0.022 24.910 -0.022 24.920 -0.005 24.930  0.001 24.940  0.001
 24.950  0.001 24.960  0.001 24.970  0.043 24.980  0.013 24.990  0.001
 25.000  0.001 25.010  0.023 25.020  0.023 25.030  0.004 25.040  0.001
 25.050 -0.009 25.060 -0.007 25.070  0.001 25.080  0.006 25.090  0.012
 25.100  0.037 25.110  0.046 25.120  0.046 25.130  0.046 25.140  0.046
 25.150  0.023 25.160  0.023 25.170  0.023 25.180  0.023 25.190  0.001
 25.200 -0.013 25.210 -0.022 25.220  0.001 25.230  0.001 25.240  0.001
 25.250  0.001 25.260  0.001 25.270  0.001 25.280  0.020 25.290  0.021
 25.300 -0.009 25.310 -0.007 25.320  0.001 25.330 -0.022 25.340 -0.010
 25.350  0.001 25.360  0.001 25.370 -0.008 25.380 -0.008 25.390  0.001
 25.400 -0.022 25.410 -0.022 25.420 -0.005 25.430 -0.022 25.440 -0.030
 25.450 -0.045 25.460 -0.045 25.470 -0.045 25.480 -0.045 25.490 -0.029
 25.500 -0.045 25.510 -0.016 25.520  0.001 25.530  0.001 25.540  0.003
 25.550  0.023 25.560  0.023 25.570  0.002 25.580  0.001 25.590 -0.011
 25.600 -0.004 25.610  0.001 25.620  0.001 25.630 -0.014 25.640 -0.001
 25.650 -0.022 25.660 -0.022 25.670 -0.022 25.680 -0.022 25.690 -0.022
 25.700 -0.022 25.710 -0.022 25.720 -0.019 25.730  0.001 25.740  0.001
 25.750  0.001 25.760  0.001 25.770  0.001 25.780  0.001 25.790  0.001
 25.800 -0.009 25.810 -0.022 25.820 -0.000 25.830  0.001 25.840 -0.011
 25.850 -0.022 25.860 -0.024 25.870 -0.045 25.880 -0.045 25.890 -0.066
 25.900 -0.068 25.910 -0.068 25.920 -0.068 25.930 -0.067 25.940 -0.045
 25.950 -0.031 25.960 -0.002 25.970 -0.019 25.980  0.001 25.990  0.001
 26.000  0.001 26.010  0.023 26.020  0.023 26.030  0.023 26.040  0.021
 26.050 -0.009 26.060 -0.007 26.070  0.001 26.080  0.001 26.090 -0.011
 26.100 -0.004 26.110 -0.022 26.120 -0.022 26.130 -0.008 26.140  0.001
 26.150  0.005 26.160  0.023 26.170  0.023 26.180  0.023 26.190  0.023
 26.200  0.023 26.210  0.023 26.220  0.027 26.230  0.036 26.240  0.023
 26.250  0.023 26.260  0.023 26.270  0.011 26.280  0.001 26.290  0.001
 26.300 -0.009 26.310 -0.007 26.320  0.001 26.330  0.001 26.340  0.001
 26.350  0.001 26.360  0.001 26.370 -0.008 26.380 -0.008 26.390 -0.020
 26.400 -0.022 26.410 -0.022 26.420 -0.005 26.430 -0.022 26.440 -0.022
 26.450 -0.009 26.460  0.001 26.470  0.001 26.480  0.001 26.490  0.001
 26.500  0.001 26.510  0.001 26.520  0.001 26.530 -0.019 26.540  0.001
 26.550 -0.009 26.560 -0.022 26.570 -0.022 26.580 -0.028 26.590 -0.045
 26.600 -0.027 26.610 -0.022 26.620 -0.022 26.630 -0.022 26.640 -0.001
 26.650  0.019 26.660  0.001 26.670  0.018 26.680  0.001 26.690  0.001
 26.700  0.001 26.710  0.021 26.720  0.023 26.730  0.013 26.740  0.001
 26.750  0.001 26.760 -0.022 26.770 -0.009 26.780 -0.019 26.790 -0.025
 26.800 -0.036 26.810 -0.038 26.820 -0.045 26.830 -0.045 26.840 -0.045
 26.850 -0.045 26.860 -0.045 26.870 -0.045 26.880 -0.030 26.890 -0.043
 26.900 -0.040 26.910 -0.022 26.920 -0.005 26.930  0.002 26.940  0.023
 26.950  0.023 26.960  0.023 26.970  0.023 26.980  0.013 26.990  0.001
 27.000 -0.022 27.010  0.001 27.020  0.001 27.030  0.001 27.040  0.001
 27.050 -0.009 27.060 -0.022 27.070 -0.000 27.080 -0.005 27.090 -0.010
 27.100 -0.018 27.110 -0.020 27.120  0.001 27.130  0.001 27.140  0.001
 27.150  0.019 27.160  0.001 27.170  0.001 27.180  0.001 27.190  0.001
 27.200  0.001 27.210  0.001 27.220  0.023 27.230  0.023 27.240  0.007
 27.250  0.001 27.260  0.001 27.270  0.001 27.280  0.001 27.290  0.001
 27.300 -0.009 27.310 -0.022 27.320 -0.022 27.330 -0.005 27.340 -0.022
 27.350 -0.040 27.360 -0.022 27.370 -0.022 27.380 -0.008 27.390  0.001
 27.400  0.001 27.410  0.001 27.420  0.001 27.430  0.001 27.440  0.001
 27.450  0.014 27.460  0.023 27.470  0.023 27.480  0.033 27.490  0.030
 27.500  0.023 27.510  0.023 27.520  0.023 27.530  0.023 27.540  0.023
 27.550  0.023 27.560  0.023 27.570  0.045 27.580  0.023 27.590  0.035
 27.600  0.046 27.610  0.046 27.620  0.046 27.630  0.046 27.640  0.046
 27.650  0.023 27.660  0.034 27.670  0.029 27.680  0.047 27.690  0.062
 27.700  0.046 27.710  0.046 27.720  0.043 27.730  0.023 27.740  0.023
 27.750  0.023 27.760  0.001 27.770  0.001 27.780  0.001 27.790  0.021
 27.800  0.010 27.810  0.008 27.820  0.001 27.830  0.001 27.840  0.001
 27.850  0.001 27.860  0.001 27.870  0.001 27.880  0.015 27.890  0.023
 27.900  0.001 27.910  0.012 27.920  0.023 27.930  0.001 27.940  0.001
 27.950  0.001 27.960  0.001 27.970  0.001 27.980  0.001 27.990  0.001
 28.000  0.023 28.010  0.023 28.020  0.023 28.030  0.023 28.040  0.023
 28.050  0.023 28.060  0.039 28.070  0.046 28.080  0.046 28.090  0.034
 28.100  0.023 28.110  0.023 28.120  0.023 28.130  0.023 28.140  0.023
 28.150  0.001 28.160  0.001 28.170  0.001 28.180  0.001 28.190  0.001
 28.200  0.001 28.210 -0.019 28.220 -0.022 28.230 -0.022 28.240 -0.022
 28.250 -0.022 28.260 -0.022 28.270 -0.022 28.280 -0.022 28.290 -0.025
 28.300 -0.036 28.310 -0.022 28.320 -0.022 28.330 -0.028 28.340 -0.045
 28.350 -0.045 28.360 -0.022 28.370 -0.022 28.380 -0.022 28.390 -0.022
 28.400 -0.018 28.410  0.001 28.420  0.001 28.430  0.001 28.440  0.001
 28.450  0.001 28.460  0.001 28.470  0.001 28.480  0.001 28.490  0.017
 28.500  0.023 28.510  0.023 28.520  0.011 28.530  0.001 28.540  0.023
 28.550  0.014 28.560  0.001 28.570  0.001 28.580  0.001 28.590  0.001
 28.600 -0.018 28.610 -0.043 28.620 -0.030 28.630 -0.030 28.640 -0.022
 28.650 -0.004 28.660 -0.022 28.670 -0.022 28.680 -0.022 28.690 -0.022
 28.700 -0.036 28.710 -0.025 28.720 -0.026 28.730 -0.045 28.740 -0.045
 28.750 -0.045 28.760 -0.045 28.770 -0.032 28.780 -0.022 28.790 -0.025
 28.800 -0.045 28.810 -0.045 28.820 -0.045 28.830 -0.045 28.840 -0.045
 28.850 -0.063 28.860 -0.068 28.870 -0.068 28.880 -0.053 28.890 -0.045
 28.900 -0.045 28.910 -0.045 28.920 -0.045 28.930 -0.044 28.940 -0.022
 28.950 -0.036 28.960 -0.045 28.970 -0.045 28.980 -0.045 28.990 -0.045
 29.000 -0.045 29.010 -0.045 29.020 -0.045 29.030 -0.026 29.040 -0.045
 29.050 -0.045 29.060 -0.045 29.070 -0.045 29.080 -0.051 29.090 -0.068
 29.100 -0.050 29.110 -0.045 29.120 -0.045 29.130 -0.030 29.140 -0.043
 29.150 -0.045 29.160 -0.045 29.170 -0.045 29.180 -0.022 29.190 -0.022
 29.200 -0.022 29.210 -0.042 29.220 -0.041 29.230 -0.012 29.240 -0.016
 29.250 -0.022 29.260  0.001 29.270 -0.012 29.280 -0.041 29.290 -0.022
 29.300 -0.022 29.310 -0.022 29.320 -0.022 29.330 -0.022 29.340 -0.022
 29.350 -0.022 29.360 -0.001 29.370 -0.014 29.380  0.001 29.390  0.001
 29.400  0.001 29.410  0.001 29.420  0.001 29.430 -0.000 29.440 -0.015
 29.450 -0.013 29.460 -0.022 29.470 -0.026 29.480 -0.045 29.490 -0.045
 29.500 -0.022 29.510 -0.016 29.520  0.001 29.530  0.001 29.540  0.001
 29.550  0.001 29.560  0.001 29.570 -0.021 29.580  0.001 29.590 -0.011
 29.600 -0.022 29.610 -0.001 29.620 -0.022 29.630 -0.022 29.640 -0.022
 29.650 -0.022 29.660 -0.033 29.670 -0.045 29.680 -0.045 29.690 -0.045
 29.700 -0.045 29.710 -0.025 29.720 -0.026 29.730 -0.035 29.740 -0.022
 29.750 -0.022 29.760 -0.022 29.770 -0.009 29.780  0.001 29.790 -0.022
 29.800 -0.013 29.810  0.001 29.820  0.001 29.830  0.001 29.840  0.001
 29.850  0.001 29.860  0.001 29.870  0.001 29.880  0.001 29.890  0.001
 29.900  0.001 29.910  0.001 29.920  0.001 29.930 -0.021 29.940  0.001
 29.950  0.001 29.960  0.001 29.970  0.004 29.980  0.023 29.990  0.023
 30.000  0.023 30.010  0.023 30.020  0.011 30.030  0.020 30.040  0.023
 30.050  0.023 30.060  0.008 30.070  0.001 30.080  0.001 30.090  0.012
 30.100  0.023 30.110 -0.001 30.120 -0.014 30.130  0.001 30.140  0.001
 30.150  0.001 30.160  0.001 30.170  0.001 30.180  0.023 30.190  0.031
 30.200  0.033 30.210  0.023 30.220  0.001 30.230  0.011 30.240  0.023
 30.250  0.023 30.260  0.007 30.270  0.023 30.280  0.004 30.290 -0.022
 30.300 -0.013 30.310  0.001 30.320  0.001 30.330  0.018 30.340  0.012
 30.350  0.023 30.360  0.023 30.370  0.023 30.380  0.023 30.390  0.044
 30.400  0.042 30.410  0.023 30.420  0.023 30.430  0.023 30.440  0.023
 30.450  0.010 30.460  0.001 30.470  0.001 30.480  0.001 30.490  0.001
 30.500  0.001 30.510  0.001 30.520  0.013 30.530  0.023 30.540  0.001
 30.550  0.001 30.560  0.001 30.570  0.023 30.580  0.023 30.590  0.023
 30.600  0.023 30.610  0.001 30.620  0.009 30.630  0.023 30.640  0.023
 30.650 -0.004 30.660 -0.011 30.670  0.001 30.680  0.001 30.690  0.001
 30.700  0.001 30.710  0.001 30.720  0.023 30.730  0.023 30.740  0.023
 30.750  0.023 30.760  0.023 30.770  0.036 30.780  0.027 30.790  0.023
 30.800  0.014 30.810  0.016 30.820  0.045 30.830  0.046 30.840  0.046
 30.850  0.046 30.860  0.046 30.870  0.046 30.880  0.046 30.890  0.046
 30.900  0.046 30.910  0.046 30.920  0.046 30.930  0.046 30.940  0.046
 30.950  0.046 30.960  0.046 30.970  0.065 30.980  0.046 30.990  0.046
 31.000  0.046 31.010  0.046 31.020  0.046 31.030  0.046 31.040  0.044
 31.050  0.023 31.060  0.023 31.070  0.023 31.080  0.023 31.090  0.023
 31.100  0.023 31.110  0.023 31.120  0.023 31.130  0.023 31.140  0.044
 31.150  0.046 31.160  0.046 31.170  0.029 31.180  0.023 31.190  0.008
 31.200  0.023 31.210  0.023 31.220  0.023 31.230  0.023 31.240  0.007
 31.250  0.001 31.260  0.017 31.270 -0.012 31.280 -0.022 31.290 -0.022
 31.300 -0.022 31.310 -0.022 31.320 -0.022 31.330 -0.028 31.340 -0.045
 31.350 -0.045 31.360 -0.022 31.370 -0.030 31.380 -0.045 31.390 -0.024
 31.400 -0.022 31.410 -0.022 31.420 -0.005 31.430  0.001 31.440  0.001
 31.450  0.001 31.460  0.001 31.470  0.001 31.480 -0.009 31.490 -0.006
 31.500  0.001 31.510 -0.022 31.520 -0.022 31.530 -0.041 31.540 -0.045
 31.550 -0.045 31.560 -0.030 31.570 -0.044 31.580 -0.040 31.590 -0.022
 31.600 -0.022 31.610 -0.022 31.620 -0.014 31.630  0.001 31.640  0.001
 31.650 -0.004 31.660 -0.022 31.670 -0.022 31.680 -0.022 31.690 -0.022
 31.700 -0.022 31.710 -0.002 31.720 -0.003 31.730 -0.012 31.740  0.001
 31.750  0.001 31.760  0.023 31.770  0.023 31.780  0.023 31.790  0.044
 31.800  0.023 31.810  0.023 31.820  0.023 31.830  0.023 31.840  0.023
 31.850  0.023 31.860  0.022 31.870 -0.008 31.880 -0.008 31.890  0.001
 31.900  0.001 31.910 -0.010 31.920 -0.005 31.930 -0.022 31.940 -0.022
 31.950 -0.022 31.960 -0.022 31.970 -0.041 31.980 -0.022 31.990 -0.022
 32.000 -0.022 32.010 -0.022 32.020 -0.009 32.030  0.001 32.040 -0.019
 32.050  0.001 32.060  0.016 32.070  0.002 32.080  0.018 32.090  0.001
 32.100  0.019 32.110  0.001 32.120  0.001 32.130 -0.014 32.140 -0.022
 32.150  0.005 32.160  0.012 32.170  0.001 32.180  0.001 32.190  0.008
 32.200  0.023 32.210  0.023 32.220  0.020 32.230  0.001 32.240  0.001
 32.250  0.001 32.260  0.007 32.270  0.011 32.280  0.001 32.290  0.001
 32.300  0.001 32.310  0.001 32.320  0.023 32.330  0.001 32.340  0.001
 32.350  0.019 32.360  0.001 32.370 -0.008 32.380 -0.022 32.390 -0.001
 32.400 -0.022 32.410 -0.011 32.420 -0.017 32.430 -0.022 32.440 -0.022
 32.450 -0.009 32.460  0.001 32.470 -0.022 32.480 -0.022 32.490 -0.022
 32.500 -0.022 32.510 -0.022 32.520 -0.022 32.530 -0.022 32.540 -0.019
 32.550 -0.009 32.560 -0.022 32.570 -0.000 32.580  0.001 32.590  0.001
 32.600 -0.018 32.610 -0.022 32.620 -0.022 32.630 -0.022 32.640 -0.022
 32.650  0.001 32.660 -0.010 32.670 -0.022 32.680  0.001 32.690 -0.007
 32.700 -0.022 32.710 -0.022 32.720  0.001 32.730  0.001 32.740  0.001
 32.750 -0.022 32.760  0.001 32.770  0.001 32.780 -0.019 32.790 -0.019
 32.800 -0.009 32.810 -0.022 32.820 -0.022 32.830 -0.022 32.840 -0.010
 32.850 -0.018 32.860 -0.020 32.870  0.001 32.880  0.001 32.890  0.001
 32.900  0.001 32.910  0.001 32.920  0.001 32.930  0.001 32.940  0.001
 32.950  0.001 32.960 -0.019 32.970 -0.019 32.980  0.001 32.990 -0.016
 33.000 -0.022 33.010 -0.016 33.020  0.001 33.030  0.001 33.040  0.001
 33.050  0.010 33.060  0.008 33.070  0.001 33.080  0.001 33.090  0.001
 33.100  0.001 33.110  0.001 33.120  0.001 33.130  0.001 33.140  0.001
 33.150  0.001 33.160  0.001 33.170  0.001 33.180  0.023 33.190  0.001
 33.200  0.001 33.210  0.021 33.220  0.023 33.230  0.023 33.240  0.040
 33.250  0.046 33.260  0.023 33.270  0.023 33.280  0.004 33.290  0.023
 33.300  0.033 33.310  0.046 33.320  0.024 33.330  0.018 33.340  0.012
 33.350  0.023 33.360  0.025 33.370  0.046 33.380  0.032 33.390  0.023
 33.400  0.023 33.410  0.023 33.420  0.023 33.430  0.023 33.440  0.023
 33.450  0.010 33.460  0.021 33.470  0.027 33.480  0.036 33.490  0.023
 33.500  0.023 33.510  0.046 33.520  0.046 33.530  0.046 33.540  0.023
 33.550  0.033 33.560  0.031 33.570  0.023 33.580  0.029 33.590  0.034
 33.600  0.023 33.610  0.023 33.620  0.023 33.630  0.009 33.640  0.001
 33.650  0.001 33.660  0.012 33.670  0.023 33.680  0.023 33.690  0.008
 33.700  0.023 33.710  0.023 33.720  0.023 33.730  0.033 33.740  0.030
 33.750  0.023 33.760  0.023 33.770  0.023 33.780  0.023 33.790  0.023
 33.800  0.023 33.810  0.023 33.820  0.023 33.830  0.023 33.840  0.023
 33.850  0.023 33.860  0.022 33.870  0.001 33.880  0.001 33.890  0.001
 33.900  0.005 33.910  0.023 33.920  0.023 33.930  0.023 33.940  0.023
 33.950  0.023 33.960  0.023 33.970  0.023 33.980  0.023 33.990  0.023
 34.000  0.023 34.010  0.023 34.020  0.011 34.030  0.020 34.040  0.023
 34.050  0.023 34.060  0.023 34.070  0.023 34.080  0.023 34.090  0.023
 34.100  0.023 34.110  0.022 34.120  0.001 34.130  0.001 34.140  0.001
 34.150  0.005 34.160  0.023 34.170  0.023 34.180  0.023 34.190  0.023
 34.200  0.010 34.210  0.001 34.220  0.004 34.230  0.023 34.240  0.023
 34.250  0.023 34.260  0.023 34.270  0.011 34.280  0.001 34.290  0.021
 34.300  0.010 34.310  0.008 34.320  0.001 34.330  0.018 34.340  0.001
 34.350  0.019 34.360  0.023 34.370  0.015 34.380  0.001 34.390  0.001
 34.400  0.005 34.410  0.023 34.420  0.006 34.430  0.001 34.440  0.001
 34.450  0.001 34.460  0.001 34.470  0.023 34.480  0.023 34.490  0.023
 34.500  0.023 34.510 -0.006 34.520 -0.022 34.530 -0.022 34.540 -0.022
 34.550 -0.022 34.560 -0.022 34.570 -0.000 34.580 -0.005 34.590 -0.010
 34.600  0.001 34.610  0.001 34.620  0.001 34.630  0.001 34.640  0.001
 34.650  0.001 34.660  0.012 34.670  0.006 34.680 -0.000 34.690 -0.022
 34.700 -0.009 34.710 -0.019 34.720 -0.003 34.730 -0.012 34.740  0.001
 34.750  0.001 34.760  0.030 34.770  0.046 34.780  0.027 34.790  0.023
 34.800  0.033 34.810  0.046 34.820  0.046 34.830  0.023 34.840  0.035
 34.850  0.046 34.860  0.044 34.870  0.023 34.880  0.023 34.890  0.023
 34.900  0.019 34.910 -0.010 34.920 -0.005 34.930  0.001 34.940  0.001
 34.950  0.001 34.960  0.021 34.970  0.001 34.980  0.001 34.990 -0.016
/&  ----------  END OF DATA FOR CHANNEL 3  ----------
